participant_id,trial,condition,word,color,response,reaction_time
1,1,congruent,red,red,b,933.6277622971892
1,2,congruent,red,red,y,734.4963197335094
1,3,incongruent,blue,red,g,896.9710286450861
1,4,incongruent,blue,red,b,779.4735569583567
1,5,congruent,green,green,r,960.397883633962
1,6,congruent,blue,blue,g,800.0482608940355
1,7,incongruent,blue,green,y,926.678871244671
1,8,congruent,red,red,b,875.5292567603713
1,9,congruent,green,green,b,978.6542694462784
1,10,congruent,blue,blue,r,891.809690627127
1,11,incongruent,red,green,y,909.456084971612
1,12,incongruent,blue,red,r,890.803303178368
1,13,congruent,blue,blue,b,972.9064174526948
1,14,congruent,blue,blue,g,867.7629345495563
1,15,congruent,blue,blue,b,872.5745149811684
1,16,congruent,yellow,yellow,r,817.2870193433697
1,17,incongruent,red,green,r,986.0190747013517
1,18,congruent,red,red,g,846.0442373149078
1,19,incongruent,red,blue,r,864.4058803898091
1,20,congruent,green,green,y,780.75299035055
1,21,incongruent,green,blue,y,832.3286659531706
1,22,incongruent,blue,yellow,r,981.4319853773115
1,23,congruent,yellow,yellow,r,841.3418898159982
1,24,incongruent,blue,red,y,856.0977234744585
1,25,incongruent,green,red,g,984.6597008203933
1,26,congruent,green,green,g,797.8779058837974
1,27,incongruent,green,blue,y,948.5261595358947
1,28,incongruent,green,red,y,823.3580668567939
1,29,incongruent,red,blue,r,980.1355083487488
1,30,incongruent,blue,red,r,889.9320087185564
1,31,incongruent,yellow,green,y,958.7224341007568
1,32,incongruent,red,green,y,969.5002421457568
1,33,incongruent,blue,green,y,828.9831253388021
1,34,congruent,blue,blue,g,790.8631667778551
1,35,incongruent,blue,yellow,b,883.9713417367591
1,36,congruent,red,red,r,844.5558357776417
1,37,incongruent,green,red,b,1014.7142155033438
1,38,congruent,green,green,y,864.4863246666213
1,39,congruent,green,green,g,791.2339277217061
1,40,congruent,red,red,g,678.3718459716611
2,1,congruent,yellow,yellow,b,786.386883182854
2,2,congruent,green,green,g,759.8832643315488
2,3,congruent,green,green,g,722.9844009704005
2,4,congruent,red,red,r,721.5561043592271
2,5,congruent,red,red,g,638.3860750865073
2,6,incongruent,yellow,green,g,1050.8374056980351
2,7,incongruent,yellow,green,r,981.2963464060964
2,8,incongruent,blue,green,b,1007.4271668884468
2,9,incongruent,green,red,g,991.560286647588
2,10,congruent,green,green,y,732.9482578942221
2,11,congruent,red,red,r,802.0149926788739
2,12,congruent,yellow,yellow,y,737.3340427840723
2,13,congruent,green,green,r,860.9354315663317
2,14,incongruent,red,green,g,879.3985912872932
2,15,congruent,red,red,g,615.7175588735507
2,16,congruent,yellow,yellow,g,849.105965933125
2,17,congruent,red,red,b,702.285354922111
2,18,congruent,blue,blue,y,707.3869963880423
2,19,incongruent,red,green,r,1012.9127905580102
2,20,incongruent,green,red,r,936.870132018912
2,21,incongruent,red,green,y,954.2741677035756
2,22,incongruent,yellow,red,r,792.3224982163912
2,23,congruent,green,green,b,913.1342604390494
2,24,incongruent,green,yellow,b,1057.5150902246364
2,25,incongruent,red,green,b,950.3994175741024
2,26,congruent,blue,blue,y,736.1881466286632
2,27,incongruent,blue,green,b,922.0153189502674
2,28,incongruent,blue,yellow,r,937.7735149831332
2,29,incongruent,green,blue,g,895.5699776190891
2,30,congruent,blue,blue,r,749.5261227195375
2,31,congruent,red,red,y,684.0412248983274
2,32,congruent,blue,blue,b,649.7690965557006
2,33,incongruent,blue,red,r,1001.3382995799968
2,34,incongruent,red,yellow,y,965.9446992725326
2,35,incongruent,yellow,red,r,920.3199472610648
2,36,incongruent,blue,green,g,891.3127101496099
2,37,incongruent,yellow,green,y,1141.0627831178276
2,38,congruent,green,green,y,756.8931087114863
2,39,congruent,green,green,g,836.2547430763677
2,40,incongruent,yellow,blue,b,1059.1017178433922
3,1,congruent,yellow,yellow,y,800.1012128067565
3,2,congruent,blue,blue,y,708.2086890743408
3,3,incongruent,blue,yellow,g,974.0730576395024
3,4,congruent,yellow,yellow,g,791.0439753128152
3,5,congruent,yellow,yellow,r,807.7795799276176
3,6,incongruent,green,blue,y,958.463422253852
3,7,incongruent,yellow,red,g,871.0558243354723
3,8,incongruent,red,yellow,g,1078.0109079873846
3,9,incongruent,yellow,green,r,922.56087601413
3,10,congruent,yellow,yellow,y,878.8383061409261
3,11,congruent,green,green,r,787.0518881362174
3,12,incongruent,red,yellow,y,1028.5834482358605
3,13,congruent,blue,blue,r,756.6905909181019
3,14,incongruent,red,blue,y,947.6586541665793
3,15,congruent,red,red,g,835.7097645230805
3,16,congruent,green,green,r,848.1340655221985
3,17,congruent,blue,blue,g,865.0816519285115
3,18,congruent,yellow,yellow,b,738.5905311006109
3,19,incongruent,blue,red,r,928.361693881322
3,20,congruent,red,red,b,843.9765770980588
3,21,incongruent,yellow,blue,b,1053.128325040526
3,22,congruent,green,green,r,674.1157840215685
3,23,congruent,red,red,y,931.2160954874372
3,24,congruent,yellow,yellow,r,737.3734273180728
3,25,incongruent,green,yellow,r,941.6988217059572
3,26,congruent,green,green,g,730.1549292036128
3,27,incongruent,green,yellow,y,953.2346985980932
3,28,incongruent,blue,yellow,b,984.7558289855334
3,29,incongruent,blue,red,y,1000.04622202056
3,30,incongruent,blue,red,b,875.0605625993901
3,31,congruent,blue,blue,y,705.9969699629612
3,32,incongruent,green,red,b,976.6877713107044
3,33,incongruent,yellow,green,r,1012.9452747944388
3,34,congruent,red,red,b,775.3279948550263
3,35,congruent,blue,blue,g,726.5766535027182
3,36,incongruent,green,red,y,936.5148315798368
3,37,incongruent,green,blue,b,1025.0418759950458
3,38,incongruent,yellow,green,b,1000.8889612778096
3,39,incongruent,green,yellow,b,1046.0437555780004
3,40,congruent,red,red,b,782.7720131593667
4,1,congruent,yellow,yellow,g,973.0294204092856
4,2,congruent,yellow,yellow,b,877.2499638960867
4,3,congruent,blue,blue,b,838.687041748753
4,4,incongruent,green,red,r,1025.9039168274562
4,5,incongruent,green,red,g,1027.399645345398
4,6,congruent,green,green,r,957.4971283859322
4,7,incongruent,green,blue,y,847.4400907477116
4,8,incongruent,red,yellow,y,941.948910733764
4,9,incongruent,green,yellow,r,1019.4138793854498
4,10,congruent,green,green,g,902.0425024908604
4,11,congruent,green,green,b,990.3188188728342
4,12,congruent,yellow,yellow,y,920.398748039327
4,13,congruent,blue,blue,b,1106.9267801638955
4,14,incongruent,yellow,blue,b,1132.3892527894373
4,15,incongruent,blue,red,g,934.5854370590772
4,16,congruent,blue,blue,y,1044.7054716996308
4,17,congruent,green,green,b,914.9538991304436
4,18,incongruent,yellow,green,g,1042.538408482233
4,19,congruent,red,red,g,1101.7074550450734
4,20,incongruent,red,blue,b,921.9080157737592
4,21,congruent,yellow,yellow,b,1013.3942954966838
4,22,incongruent,green,yellow,b,838.6090048157446
4,23,incongruent,green,yellow,b,990.9567438633932
4,24,incongruent,yellow,blue,y,1020.5232843773604
4,25,incongruent,yellow,red,b,1009.419700205022
4,26,congruent,green,green,g,789.9387169032558
4,27,congruent,yellow,yellow,r,960.4353625915938
4,28,congruent,red,red,r,948.4938477366092
4,29,incongruent,red,green,b,861.4180994645693
4,30,incongruent,yellow,red,r,883.7104088852229
4,31,incongruent,green,yellow,r,836.2576436614162
4,32,congruent,red,red,b,933.7111192506372
4,33,congruent,red,red,r,1069.762563300365
4,34,incongruent,blue,green,r,954.8243290169308
4,35,incongruent,red,green,y,943.4047383951862
4,36,incongruent,blue,yellow,b,843.2071252448435
4,37,congruent,red,red,g,878.4005254917129
4,38,congruent,blue,blue,y,963.6102223945072
4,39,congruent,red,red,y,837.3472889525112
4,40,incongruent,blue,red,r,934.4140689260224
5,1,incongruent,yellow,red,r,1082.5822243917337
5,2,incongruent,red,yellow,g,1139.6812105320423
5,3,incongruent,red,yellow,r,1223.5803998526735
5,4,congruent,blue,blue,b,789.1282145207794
5,5,congruent,red,red,g,616.1266823004078
5,6,congruent,yellow,yellow,g,642.7102699227421
5,7,incongruent,blue,red,b,1073.632312431081
5,8,incongruent,yellow,red,r,1017.6614630992768
5,9,incongruent,yellow,blue,b,1053.2845567532445
5,10,incongruent,blue,yellow,b,1130.0922680194003
5,11,incongruent,blue,red,y,1129.30456914129
5,12,incongruent,green,red,y,1182.8498885802762
5,13,congruent,yellow,yellow,r,703.0689798458313
5,14,incongruent,green,blue,b,1096.5507128462475
5,15,congruent,yellow,yellow,b,669.7776365221928
5,16,incongruent,red,yellow,y,1106.7515142176303
5,17,incongruent,yellow,green,b,1027.6871789977297
5,18,incongruent,green,blue,r,1037.4594950478192
5,19,incongruent,green,red,y,1103.6232202502267
5,20,congruent,red,red,y,653.7739409122995
5,21,congruent,yellow,yellow,g,643.6905225549358
5,22,congruent,blue,blue,g,559.5451748976586
5,23,congruent,blue,blue,g,624.07550528151
5,24,congruent,yellow,yellow,r,531.1723612335118
5,25,incongruent,green,red,g,1022.423876835519
5,26,congruent,blue,blue,b,648.3692247902917
5,27,congruent,yellow,yellow,g,534.9179020661995
5,28,congruent,blue,blue,b,518.0396430188358
5,29,incongruent,blue,red,y,1282.3026565453515
5,30,congruent,blue,blue,b,601.6216219881494
5,31,congruent,green,green,g,585.5034555466503
5,32,congruent,yellow,yellow,r,580.1496125427853
5,33,congruent,green,green,g,660.2010261445736
5,34,congruent,red,red,g,878.1352573948773
5,35,congruent,blue,blue,y,582.1828359825964
5,36,incongruent,yellow,red,b,1094.5535547292302
5,37,congruent,blue,blue,r,621.8751345331711
5,38,incongruent,yellow,green,b,1050.8965171273112
5,39,incongruent,green,red,b,1170.582291659308
5,40,incongruent,green,red,r,1211.3192089426057
6,1,incongruent,yellow,green,y,689.3172147298849
6,2,congruent,red,red,r,606.6360800128119
6,3,congruent,green,green,y,648.5127025051231
6,4,incongruent,yellow,blue,r,803.3017359626527
6,5,congruent,red,red,g,679.2639259550381
6,6,congruent,green,green,r,845.629134951529
6,7,congruent,blue,blue,g,628.4392005652489
6,8,incongruent,green,red,r,751.4746626465737
6,9,incongruent,red,green,r,687.6124512766398
6,10,congruent,yellow,yellow,g,774.7173451555122
6,11,incongruent,green,red,r,763.857773786143
6,12,incongruent,red,yellow,y,684.1717486914256
6,13,congruent,green,green,r,634.4312496884086
6,14,congruent,blue,blue,r,768.3223773196584
6,15,congruent,green,green,r,566.9470492554076
6,16,congruent,yellow,yellow,y,611.8790294456414
6,17,congruent,red,red,y,570.822457530168
6,18,incongruent,red,green,y,817.4667075739593
6,19,congruent,green,green,b,801.7969044277665
6,20,incongruent,yellow,green,r,903.1181848952028
6,21,incongruent,blue,green,r,700.7435724747442
6,22,incongruent,green,yellow,y,690.3269505614
6,23,congruent,blue,blue,b,636.5771112073226
6,24,incongruent,blue,red,y,835.4825187701831
6,25,incongruent,blue,yellow,b,772.639015188716
6,26,congruent,green,green,r,665.4020570339961
6,27,incongruent,blue,red,r,732.0606365859875
6,28,incongruent,red,green,g,641.3333770713864
6,29,incongruent,yellow,red,r,717.6020838881855
6,30,congruent,yellow,yellow,r,803.7800616330866
6,31,congruent,green,green,b,631.6245554715852
6,32,incongruent,yellow,red,r,739.4691001385376
6,33,congruent,red,red,r,590.3237350094684
6,34,incongruent,green,blue,r,780.2132600497628
6,35,incongruent,green,red,y,700.7767893119667
6,36,congruent,blue,blue,r,689.2193014087587
6,37,congruent,green,green,y,713.1798317793986
6,38,incongruent,yellow,green,g,796.133533029128
6,39,congruent,yellow,yellow,y,622.1549256440705
6,40,incongruent,green,red,y,665.4472613675222
7,1,congruent,yellow,yellow,g,609.9435868264222
7,2,incongruent,yellow,blue,g,1243.593554206007
7,3,congruent,green,green,y,596.0986829008858
7,4,congruent,red,red,g,691.217464401857
7,5,congruent,blue,blue,r,673.7807340481511
7,6,incongruent,green,blue,b,1303.233387393793
7,7,congruent,green,green,r,757.5676414445239
7,8,congruent,blue,blue,b,870.9197888664479
7,9,congruent,yellow,yellow,r,704.4067155817179
7,10,incongruent,green,red,b,1196.789306966047
7,11,incongruent,yellow,red,y,979.2648778426944
7,12,congruent,blue,blue,r,709.6396514916424
7,13,congruent,yellow,yellow,g,846.6115448237998
7,14,incongruent,red,blue,y,1187.7585131379738
7,15,incongruent,green,red,b,1078.0976840831038
7,16,incongruent,yellow,green,y,1154.0404106849458
7,17,congruent,blue,blue,g,725.9705749032714
7,18,incongruent,yellow,blue,b,1187.3881098127003
7,19,incongruent,red,green,y,1126.923647333169
7,20,incongruent,green,blue,r,1109.1349923409898
7,21,incongruent,blue,green,g,1133.771285500206
7,22,congruent,yellow,yellow,y,678.5549456647049
7,23,incongruent,yellow,blue,b,1084.0624921731276
7,24,incongruent,red,blue,g,1088.684680361566
7,25,incongruent,green,blue,b,1080.5974332362275
7,26,congruent,red,red,r,655.6410854638136
7,27,incongruent,red,green,r,1223.8029637006512
7,28,congruent,blue,blue,b,688.6826133985518
7,29,congruent,red,red,b,665.5492883102087
7,30,incongruent,green,red,r,1125.751163661204
7,31,congruent,yellow,yellow,r,711.6456341610229
7,32,congruent,red,red,b,710.652852305829
7,33,congruent,green,green,y,769.191172384179
7,34,congruent,red,red,b,627.7465534788741
7,35,incongruent,red,yellow,y,1123.5594241082276
7,36,incongruent,green,red,y,1008.165121503348
7,37,incongruent,yellow,green,b,1174.5318238406226
7,38,incongruent,red,green,y,1121.7610681133965
7,39,congruent,blue,blue,y,838.4156967198418
7,40,congruent,blue,blue,y,805.1948028242551
8,1,incongruent,green,red,r,849.9712456992112
8,2,incongruent,red,blue,b,896.3882152061697
8,3,congruent,green,green,b,790.0274939609234
8,4,congruent,green,green,g,839.3824758599351
8,5,congruent,yellow,yellow,g,781.6553771138147
8,6,incongruent,green,yellow,g,766.257536884669
8,7,incongruent,blue,green,y,748.3938155739412
8,8,congruent,blue,blue,g,707.7158857682663
8,9,congruent,yellow,yellow,b,691.7130151917252
8,10,incongruent,blue,yellow,g,788.5041492080608
8,11,incongruent,green,red,b,815.0232051421907
8,12,incongruent,yellow,blue,b,840.4353465322761
8,13,incongruent,red,green,g,927.5709912385396
8,14,incongruent,blue,green,r,922.4109155758184
8,15,congruent,blue,blue,b,821.302021561585
8,16,incongruent,green,red,b,958.231768510022
8,17,congruent,red,red,r,703.4795589941588
8,18,incongruent,yellow,red,b,662.340072028835
8,19,congruent,green,green,b,695.3703979578007
8,20,incongruent,red,yellow,g,884.0188929661696
8,21,congruent,red,red,g,850.2329467068124
8,22,incongruent,blue,red,b,763.2617944050733
8,23,congruent,red,red,b,581.9621134009292
8,24,incongruent,yellow,green,g,739.2758495153937
8,25,congruent,blue,blue,g,672.5102979687081
8,26,incongruent,blue,green,g,986.4828333217274
8,27,congruent,yellow,yellow,b,748.9540054652615
8,28,congruent,green,green,y,720.9164537513602
8,29,congruent,red,red,r,700.7574199128632
8,30,incongruent,green,yellow,y,795.3131953358833
8,31,congruent,blue,blue,g,556.6363204765331
8,32,incongruent,blue,red,b,685.3384799333462
8,33,congruent,blue,blue,g,774.3688101535396
8,34,congruent,red,red,g,643.8368881986215
8,35,congruent,yellow,yellow,y,699.4858891671206
8,36,incongruent,blue,yellow,g,879.7588240830443
8,37,incongruent,yellow,red,y,722.7850216176789
8,38,congruent,yellow,yellow,r,783.5050381289135
8,39,incongruent,green,yellow,b,775.3563752219501
8,40,congruent,yellow,yellow,r,668.7821982611283
9,1,congruent,green,green,r,777.9811163895484
9,2,congruent,red,red,y,668.2749129976065
9,3,congruent,yellow,yellow,y,761.3354279170669
9,4,incongruent,blue,green,r,818.2782484587907
9,5,incongruent,red,blue,r,925.250399367888
9,6,incongruent,blue,red,y,997.2826647281836
9,7,congruent,red,red,g,735.5649190591228
9,8,incongruent,blue,green,g,713.6452464345255
9,9,congruent,blue,blue,g,874.8465979902614
9,10,incongruent,red,green,r,632.1461339637661
9,11,congruent,yellow,yellow,r,719.6695539293154
9,12,incongruent,blue,red,y,796.0473517208496
9,13,congruent,red,red,g,796.3923309634786
9,14,incongruent,red,green,b,788.9231203167734
9,15,congruent,yellow,yellow,r,832.0975509122536
9,16,incongruent,yellow,green,y,868.2864432818787
9,17,incongruent,green,red,y,872.7614668783453
9,18,incongruent,green,yellow,r,787.4074605643808
9,19,incongruent,blue,green,y,841.5010108205049
9,20,incongruent,green,red,g,800.8969957454692
9,21,congruent,red,red,y,613.2200835294982
9,22,incongruent,yellow,blue,r,720.1094074544565
9,23,congruent,yellow,yellow,r,670.2959661853988
9,24,congruent,red,red,y,858.802600120364
9,25,congruent,green,green,y,769.2472487069788
9,26,congruent,green,green,y,884.2393183689479
9,27,congruent,green,green,g,830.2635329873806
9,28,incongruent,blue,green,y,594.2941575580505
9,29,incongruent,green,blue,y,799.5122205858789
9,30,incongruent,green,red,r,824.4804067081112
9,31,congruent,red,red,b,772.5321527913907
9,32,congruent,blue,blue,y,682.3231863523582
9,33,incongruent,green,yellow,g,651.3070243274711
9,34,incongruent,blue,red,g,777.1735145750495
9,35,congruent,green,green,g,828.0347662067127
9,36,congruent,blue,blue,r,807.5889470061109
9,37,congruent,blue,blue,b,898.9353260752508
9,38,congruent,green,green,g,846.6602615109556
9,39,incongruent,green,yellow,g,745.8180084272077
9,40,incongruent,yellow,green,y,757.3836700824185
10,1,incongruent,green,blue,y,931.6654270152573
10,2,congruent,blue,blue,b,800.1130812987504
10,3,incongruent,blue,yellow,r,981.2151528481194
10,4,incongruent,green,yellow,g,1018.83087579418
10,5,incongruent,yellow,blue,r,915.2121601179696
10,6,congruent,red,red,r,788.9744939726806
10,7,congruent,yellow,yellow,r,984.2924554808192
10,8,incongruent,blue,green,y,1030.044902182019
10,9,congruent,red,red,y,1000.7508338257508
10,10,incongruent,red,yellow,g,954.1351960550392
10,11,incongruent,blue,red,y,1043.7550799877604
10,12,congruent,yellow,yellow,r,943.7550493306612
10,13,congruent,blue,blue,g,998.2273819745448
10,14,congruent,yellow,yellow,g,895.0780135165243
10,15,congruent,red,red,y,1125.5388612568622
10,16,congruent,yellow,yellow,b,954.0983122367292
10,17,incongruent,blue,green,g,1031.2852156788683
10,18,incongruent,yellow,red,b,1086.8068560257284
10,19,incongruent,green,yellow,b,1126.3524013802112
10,20,incongruent,green,red,y,949.7085814935102
10,21,incongruent,green,blue,r,1083.7253136386153
10,22,incongruent,green,blue,r,1054.157452687682
10,23,congruent,red,red,b,885.0385098726053
10,24,incongruent,yellow,green,y,987.7033981775536
10,25,congruent,blue,blue,y,931.0523999004524
10,26,congruent,yellow,yellow,g,915.7730523563496
10,27,congruent,green,green,g,973.0075967040984
10,28,congruent,green,green,y,895.3139258430571
10,29,incongruent,green,blue,b,1136.3788391438347
10,30,incongruent,red,blue,y,843.4550836222496
10,31,incongruent,green,red,g,970.1819687620092
10,32,congruent,yellow,yellow,r,915.4135392555248
10,33,congruent,blue,blue,g,1014.1708517392734
10,34,congruent,blue,blue,b,852.4545335772036
10,35,congruent,blue,blue,y,856.564286463894
10,36,incongruent,green,blue,g,964.3031399180102
10,37,congruent,yellow,yellow,b,997.6097486637324
10,38,incongruent,green,yellow,g,1052.5657026778567
10,39,congruent,blue,blue,b,962.450414730486
10,40,incongruent,yellow,green,r,925.2197127935244
11,1,incongruent,blue,green,b,925.0084999941766
11,2,congruent,green,green,r,640.7849922405196
11,3,incongruent,red,yellow,y,785.9248847845511
11,4,congruent,blue,blue,b,625.6605985792137
11,5,congruent,green,green,r,711.597238646873
11,6,incongruent,blue,green,r,902.5461583477426
11,7,incongruent,green,blue,y,923.9193699480188
11,8,congruent,yellow,yellow,y,722.4210088761355
11,9,congruent,green,green,r,617.9854701847083
11,10,incongruent,green,red,y,958.0216823972556
11,11,incongruent,red,green,b,1092.8016147816938
11,12,incongruent,blue,red,y,843.5281186721721
11,13,incongruent,yellow,red,y,999.8608933617244
11,14,congruent,green,green,g,536.7216079034123
11,15,incongruent,red,yellow,r,911.1106850544236
11,16,incongruent,yellow,red,r,931.2793286686594
11,17,congruent,green,green,r,661.3300498990633
11,18,congruent,green,green,b,690.1921326039557
11,19,incongruent,yellow,green,b,723.0064006587199
11,20,congruent,blue,blue,b,662.8808498465028
11,21,congruent,green,green,g,721.0259457351316
11,22,incongruent,green,blue,g,820.554515616846
11,23,congruent,yellow,yellow,b,703.18810708622
11,24,incongruent,red,yellow,b,1043.3656491597249
11,25,incongruent,yellow,green,y,987.7874235665646
11,26,congruent,blue,blue,b,708.1436169825755
11,27,congruent,red,red,r,666.4580071431559
11,28,incongruent,yellow,green,r,864.9783264637359
11,29,congruent,yellow,yellow,y,658.9486384992306
11,30,congruent,red,red,b,686.9486851112564
11,31,congruent,red,red,y,729.2778464610598
11,32,congruent,yellow,yellow,g,457.31341521510274
11,33,incongruent,yellow,green,g,885.7640722142808
11,34,incongruent,red,blue,r,901.895751355384
11,35,incongruent,green,red,g,1031.6908900903777
11,36,congruent,green,green,r,575.2732174234726
11,37,incongruent,green,blue,b,814.8117641287544
11,38,incongruent,yellow,red,r,1002.7867587351944
11,39,congruent,red,red,r,624.343063272361
11,40,congruent,red,red,b,635.6712102900514
12,1,congruent,red,red,g,933.7139721405432
12,2,incongruent,blue,yellow,r,964.3220009136356
12,3,incongruent,green,red,r,950.190501821348
12,4,congruent,green,green,g,1061.335147596635
12,5,incongruent,red,yellow,r,963.230574920824
12,6,congruent,red,red,y,808.3260211533731
12,7,incongruent,blue,yellow,y,1071.4455197787204
12,8,incongruent,blue,green,y,958.9267309093492
12,9,incongruent,blue,red,y,1078.2461409476875
12,10,incongruent,green,red,r,894.0223233843459
12,11,incongruent,yellow,blue,g,955.3537887120384
12,12,incongruent,yellow,blue,r,1051.2024964387658
12,13,incongruent,yellow,green,r,1118.429698298009
12,14,incongruent,green,red,y,993.579740473212
12,15,congruent,yellow,yellow,y,759.6391559882748
12,16,congruent,red,red,g,1007.6184759226855
12,17,incongruent,yellow,green,r,1139.4788244339927
12,18,incongruent,green,yellow,g,1022.925601383526
12,19,congruent,red,red,g,841.6026384208074
12,20,incongruent,red,blue,g,962.297174741417
12,21,congruent,red,red,r,920.903863316746
12,22,incongruent,red,green,g,953.5675041960176
12,23,congruent,blue,blue,r,948.9003557948432
12,24,congruent,red,red,b,1043.1772054614255
12,25,congruent,red,red,g,985.7386615648932
12,26,congruent,red,red,g,1045.8869732768096
12,27,congruent,red,red,y,956.5217936174146
12,28,incongruent,red,blue,r,1040.7173010144083
12,29,congruent,red,red,y,1025.305190916938
12,30,congruent,green,green,b,1008.89452138414
12,31,congruent,green,green,r,1056.243287634453
12,32,congruent,red,red,g,990.9623263160254
12,33,incongruent,yellow,blue,g,1119.3862792449827
12,34,incongruent,blue,red,g,1011.2856725768596
12,35,congruent,green,green,y,1086.945167160584
12,36,incongruent,yellow,green,y,986.6576147188108
12,37,congruent,blue,blue,g,1029.727252434414
12,38,incongruent,green,yellow,b,875.6092110920491
12,39,congruent,yellow,yellow,r,1007.3360957781438
12,40,congruent,blue,blue,y,873.2294201208499
13,1,incongruent,green,yellow,g,893.8580267144296
13,2,incongruent,yellow,green,g,804.889997549811
13,3,incongruent,yellow,red,b,817.7818832166284
13,4,incongruent,yellow,green,g,947.1630365220578
13,5,incongruent,yellow,blue,r,901.3671822966472
13,6,incongruent,red,blue,y,797.0699360824337
13,7,congruent,yellow,yellow,b,781.130233068178
13,8,incongruent,yellow,blue,y,870.2288866296439
13,9,congruent,yellow,yellow,y,638.1026913663301
13,10,congruent,red,red,b,737.0775463881322
13,11,incongruent,blue,red,y,793.3913951541676
13,12,incongruent,green,yellow,r,958.7086278563232
13,13,congruent,green,green,b,709.5844280817298
13,14,incongruent,red,green,g,936.6507275788368
13,15,incongruent,yellow,red,b,828.4143956915296
13,16,incongruent,green,blue,y,755.8325003840348
13,17,congruent,yellow,yellow,g,661.9968072249765
13,18,congruent,blue,blue,b,838.0988685353013
13,19,congruent,blue,blue,r,677.4718322562062
13,20,incongruent,red,blue,b,827.2509559404486
13,21,congruent,blue,blue,r,752.1209885372118
13,22,congruent,blue,blue,b,722.4961468093138
13,23,congruent,yellow,yellow,b,721.1356408332044
13,24,congruent,blue,blue,g,699.485637987747
13,25,congruent,green,green,g,764.9757570022163
13,26,incongruent,yellow,red,r,888.5754338653824
13,27,congruent,green,green,g,620.7490216068281
13,28,congruent,red,red,y,770.25717378241
13,29,incongruent,red,yellow,r,868.7762819692845
13,30,congruent,yellow,yellow,b,599.3020466500781
13,31,incongruent,red,green,g,861.8211138629403
13,32,congruent,blue,blue,r,814.205547082686
13,33,incongruent,yellow,red,r,893.0136237290019
13,34,incongruent,green,red,y,868.954027302388
13,35,congruent,yellow,yellow,g,820.2723928168609
13,36,congruent,yellow,yellow,g,733.0729844802281
13,37,congruent,red,red,y,717.6538415989894
13,38,incongruent,blue,yellow,b,866.0215999270364
13,39,incongruent,yellow,blue,g,710.9057377269738
13,40,congruent,blue,blue,g,811.4750838913736
14,1,congruent,green,green,r,891.4136531437563
14,2,congruent,yellow,yellow,r,916.5123896068698
14,3,congruent,yellow,yellow,y,904.7218867913444
14,4,congruent,blue,blue,b,920.560777173612
14,5,congruent,green,green,g,856.0489638253636
14,6,incongruent,yellow,green,g,900.323978334908
14,7,incongruent,red,green,r,966.6753372029808
14,8,congruent,green,green,g,837.5799432326414
14,9,congruent,yellow,yellow,r,983.0086033964262
14,10,congruent,green,green,y,786.8338226027722
14,11,congruent,green,green,r,782.6639529900607
14,12,incongruent,green,blue,y,1001.2604470917572
14,13,incongruent,yellow,blue,y,1084.633975930507
14,14,incongruent,red,blue,y,972.4643980625326
14,15,congruent,yellow,yellow,b,811.1612375690886
14,16,congruent,yellow,yellow,g,838.468334550853
14,17,incongruent,green,blue,y,979.5456542352944
14,18,congruent,green,green,g,805.2648925038682
14,19,congruent,yellow,yellow,r,860.1625136971453
14,20,incongruent,blue,yellow,b,1037.0276142119862
14,21,congruent,yellow,yellow,b,871.3440228750422
14,22,congruent,red,red,g,818.6780986791524
14,23,incongruent,blue,red,y,974.8876225278136
14,24,incongruent,yellow,blue,b,1012.9378057278324
14,25,congruent,red,red,y,771.4668525703601
14,26,congruent,blue,blue,r,875.7701594923379
14,27,congruent,red,red,b,713.6952656022518
14,28,incongruent,yellow,blue,y,1073.3750193322385
14,29,incongruent,green,blue,r,995.1817880729072
14,30,incongruent,green,blue,y,1211.4597688054218
14,31,incongruent,green,blue,b,921.2525564286284
14,32,congruent,yellow,yellow,b,926.2745699844396
14,33,incongruent,green,blue,b,1086.3509271868832
14,34,incongruent,red,green,r,1068.200996449904
14,35,congruent,green,green,b,778.6559317126134
14,36,incongruent,green,yellow,g,921.1518478923614
14,37,incongruent,blue,yellow,b,1105.8985500740853
14,38,incongruent,red,blue,r,1149.1948679477146
14,39,incongruent,green,yellow,y,1086.1738355159328
14,40,incongruent,red,green,b,954.465488968309
15,1,incongruent,yellow,blue,y,780.613545926382
15,2,congruent,green,green,y,712.7966667223783
15,3,incongruent,red,green,b,910.621746553872
15,4,incongruent,red,yellow,y,975.8276595160254
15,5,congruent,blue,blue,y,776.0991962707423
15,6,congruent,yellow,yellow,r,549.9816033869482
15,7,incongruent,red,blue,g,873.2537528885877
15,8,congruent,yellow,yellow,r,672.8590363793344
15,9,incongruent,blue,green,y,852.8185007850687
15,10,incongruent,yellow,red,y,1030.4294873247131
15,11,congruent,yellow,yellow,y,692.1310618983911
15,12,congruent,blue,blue,r,630.916318486103
15,13,incongruent,yellow,red,g,1003.1782021665114
15,14,incongruent,blue,green,r,925.7631274635784
15,15,congruent,green,green,b,599.7913903102623
15,16,incongruent,red,green,b,711.1530416927882
15,17,incongruent,blue,green,g,913.0673821223209
15,18,congruent,red,red,r,603.9596998304958
15,19,congruent,yellow,yellow,r,672.2722169462428
15,20,incongruent,blue,green,g,843.4616940029377
15,21,incongruent,red,green,g,973.1324552724996
15,22,congruent,yellow,yellow,r,709.1380196991807
15,23,congruent,blue,blue,g,668.5868947791616
15,24,incongruent,yellow,green,g,976.26511637696
15,25,congruent,green,green,g,674.5852088646847
15,26,congruent,blue,blue,b,579.4924196269081
15,27,congruent,green,green,g,642.3591436437518
15,28,incongruent,red,yellow,b,982.5743284640366
15,29,incongruent,green,blue,r,917.8372574942388
15,30,incongruent,blue,red,g,1084.7278849330842
15,31,congruent,green,green,b,713.4377038804723
15,32,incongruent,green,blue,y,927.7472949279836
15,33,congruent,green,green,r,785.221351277565
15,34,incongruent,yellow,red,y,830.6141838774961
15,35,incongruent,yellow,red,r,966.4490823657396
15,36,congruent,red,red,r,545.8782913501278
15,37,congruent,yellow,yellow,r,720.3591858214492
15,38,congruent,green,green,r,571.6023499279622
15,39,congruent,yellow,yellow,y,743.4000088978365
15,40,incongruent,green,red,y,841.4102778451767
16,1,incongruent,green,blue,r,973.2104867848047
16,2,congruent,yellow,yellow,g,807.5387235822404
16,3,congruent,red,red,g,623.7090230511765
16,4,incongruent,yellow,red,r,1023.0325304900962
16,5,incongruent,green,red,r,961.9944810256046
16,6,congruent,green,green,g,718.876690018376
16,7,incongruent,green,blue,b,792.3027528656067
16,8,incongruent,green,blue,y,893.4590143186878
16,9,congruent,green,green,g,689.7806757742226
16,10,congruent,green,green,y,513.4071437798374
16,11,congruent,blue,blue,b,856.5502760361054
16,12,incongruent,blue,red,b,998.6291887667346
16,13,congruent,yellow,yellow,r,608.5810539877849
16,14,congruent,blue,blue,y,784.7739449115078
16,15,incongruent,yellow,red,b,836.6953421439979
16,16,incongruent,yellow,blue,g,839.4325190943549
16,17,congruent,blue,blue,b,697.5621176687478
16,18,incongruent,yellow,blue,y,834.5167123706036
16,19,incongruent,yellow,green,g,938.4350645794744
16,20,incongruent,green,blue,r,972.5576864370344
16,21,incongruent,blue,green,r,961.3863124994298
16,22,incongruent,blue,green,y,877.7188277525215
16,23,incongruent,yellow,red,y,908.3042720192046
16,24,incongruent,red,blue,r,1114.6766607116149
16,25,congruent,blue,blue,y,600.2577075483616
16,26,incongruent,green,red,g,799.2935336387196
16,27,congruent,green,green,g,685.2872910008625
16,28,congruent,green,green,r,845.2718497383771
16,29,congruent,green,green,y,667.5045340730838
16,30,incongruent,red,yellow,g,862.6594334415993
16,31,congruent,red,red,r,807.4640982230087
16,32,congruent,red,red,g,719.3553600873502
16,33,congruent,yellow,yellow,r,720.262915223812
16,34,incongruent,red,green,g,990.400014972455
16,35,incongruent,blue,yellow,r,1038.8909692889165
16,36,congruent,yellow,yellow,y,704.6843829451075
16,37,congruent,yellow,yellow,y,653.6182265991129
16,38,congruent,green,green,g,669.0036833715635
16,39,congruent,red,red,y,624.1351183793618
16,40,incongruent,yellow,blue,b,1015.454168798538
17,1,congruent,yellow,yellow,b,884.9261660831885
17,2,incongruent,green,red,b,919.7201134396478
17,3,incongruent,red,green,b,875.7594386587027
17,4,congruent,blue,blue,r,907.2812451582704
17,5,congruent,green,green,r,758.9259456583659
17,6,congruent,yellow,yellow,y,876.0379439205343
17,7,incongruent,blue,yellow,b,760.2614251613043
17,8,incongruent,red,green,r,962.6611227342944
17,9,incongruent,blue,yellow,g,737.273945845536
17,10,congruent,red,red,b,835.3185505280788
17,11,congruent,blue,blue,r,904.8587328752852
17,12,congruent,red,red,y,759.4070625533724
17,13,congruent,green,green,r,759.1960819982162
17,14,congruent,red,red,y,864.1110521751335
17,15,incongruent,yellow,blue,g,861.7336708376752
17,16,incongruent,yellow,red,g,827.6060553603185
17,17,incongruent,green,yellow,g,1074.4978743085792
17,18,incongruent,green,red,b,1027.6391953372913
17,19,congruent,green,green,b,847.3463447251597
17,20,congruent,green,green,b,838.2492719624087
17,21,congruent,yellow,yellow,r,887.1851877847648
17,22,congruent,blue,blue,r,897.609328441364
17,23,incongruent,green,yellow,r,810.9775950237984
17,24,incongruent,blue,green,g,893.6704068996396
17,25,incongruent,red,green,g,933.6429297481264
17,26,congruent,green,green,b,868.7395667533274
17,27,incongruent,green,yellow,b,873.1801337529973
17,28,incongruent,green,red,b,914.9264286922032
17,29,congruent,green,green,b,709.5950591058656
17,30,incongruent,red,yellow,r,949.0254097761556
17,31,incongruent,yellow,green,r,986.2899078047486
17,32,congruent,blue,blue,y,793.9971681620044
17,33,incongruent,yellow,blue,g,848.9081373339491
17,34,incongruent,green,red,r,904.7704053005764
17,35,congruent,green,green,b,670.5806280688457
17,36,incongruent,red,blue,y,998.0522702332696
17,37,congruent,yellow,yellow,y,799.2174281755191
17,38,incongruent,red,green,g,924.4994237511872
17,39,congruent,yellow,yellow,r,874.3633251238865
17,40,congruent,green,green,y,834.2362367464083
18,1,congruent,yellow,yellow,g,422.7159971659513
18,2,incongruent,red,green,y,1083.0057377641522
18,3,congruent,yellow,yellow,b,488.72209624658245
18,4,congruent,red,red,r,585.4850887913326
18,5,congruent,red,red,g,748.4839930447027
18,6,incongruent,yellow,red,g,1174.8304888236455
18,7,incongruent,yellow,red,g,1072.915006270984
18,8,incongruent,green,blue,b,1149.7893615622138
18,9,congruent,blue,blue,y,472.0920351052405
18,10,congruent,red,red,y,538.8453982971273
18,11,congruent,red,red,b,468.5040449763201
18,12,incongruent,blue,yellow,r,1031.6853396674032
18,13,incongruent,yellow,green,y,1119.8021832960187
18,14,congruent,yellow,yellow,r,385.560012186679
18,15,incongruent,red,yellow,b,1017.6056665130552
18,16,incongruent,red,green,b,1113.0903908680932
18,17,congruent,blue,blue,b,646.8140985476053
18,18,congruent,green,green,g,590.5285564025423
18,19,congruent,green,green,g,544.5244116514698
18,20,incongruent,red,blue,r,1034.4952994418586
18,21,incongruent,red,yellow,y,1066.955604575451
18,22,congruent,blue,blue,b,647.1672551763069
18,23,congruent,green,green,g,518.6720555863869
18,24,incongruent,blue,red,y,1205.25980904711
18,25,congruent,blue,blue,y,526.1331663220096
18,26,incongruent,yellow,blue,b,1137.1414829120913
18,27,incongruent,yellow,green,b,1156.6949939832691
18,28,incongruent,green,red,y,1122.206095060362
18,29,congruent,red,red,b,428.0170302044752
18,30,congruent,red,red,g,544.0430536870315
18,31,congruent,green,green,b,630.4081938972921
18,32,congruent,blue,blue,b,582.4235650991905
18,33,incongruent,red,blue,y,1108.0488639531914
18,34,incongruent,red,green,g,1179.948619944946
18,35,congruent,red,red,y,532.7168282432757
18,36,incongruent,red,yellow,r,980.7661119237532
18,37,incongruent,blue,red,y,1099.4508232030712
18,38,incongruent,red,yellow,y,966.7074761395056
18,39,congruent,green,green,r,493.648471368478
18,40,incongruent,yellow,green,r,1082.4519250498226
19,1,congruent,yellow,yellow,r,784.4284338024589
19,2,incongruent,blue,red,r,728.726044077613
19,3,congruent,blue,blue,b,851.2851374102238
19,4,congruent,green,green,y,601.0546813523289
19,5,congruent,yellow,yellow,g,583.8269704720702
19,6,congruent,red,red,b,790.6654447901176
19,7,congruent,red,red,y,878.4097439304879
19,8,incongruent,green,yellow,r,638.0677912402731
19,9,incongruent,blue,green,r,664.8159355814536
19,10,incongruent,yellow,red,b,726.9202768936111
19,11,congruent,green,green,b,818.2283113696252
19,12,congruent,blue,blue,r,754.4731415791731
19,13,congruent,yellow,yellow,b,759.3388682858548
19,14,incongruent,green,red,b,631.5826454523526
19,15,incongruent,blue,red,y,700.8525663055996
19,16,incongruent,green,yellow,r,770.7737131218161
19,17,incongruent,green,yellow,y,638.9224715159735
19,18,incongruent,green,red,g,484.6846976548086
19,19,incongruent,yellow,red,g,632.809641260193
19,20,incongruent,blue,yellow,r,664.2897898008971
19,21,congruent,green,green,b,733.2979867660902
19,22,incongruent,green,red,r,838.3334328284988
19,23,congruent,yellow,yellow,b,809.8133472920238
19,24,incongruent,yellow,green,r,470.8486483640229
19,25,congruent,blue,blue,b,820.8516081244603
19,26,congruent,blue,blue,b,734.8345668830868
19,27,incongruent,yellow,red,b,677.6707826504716
19,28,congruent,yellow,yellow,b,655.9851790348425
19,29,incongruent,blue,red,b,837.6780744177041
19,30,incongruent,yellow,red,y,688.6169575859226
19,31,congruent,red,red,y,616.9742000835545
19,32,congruent,green,green,r,731.5841567214519
19,33,congruent,yellow,yellow,r,781.3121849235315
19,34,incongruent,green,yellow,r,704.6274510089721
19,35,incongruent,yellow,blue,y,632.0281573036864
19,36,congruent,green,green,y,739.453737656725
19,37,congruent,blue,blue,g,680.6907380742183
19,38,incongruent,yellow,green,y,609.085151466368
19,39,congruent,blue,blue,r,789.0817014476731
19,40,incongruent,blue,yellow,b,863.0364174697618
20,1,congruent,blue,blue,g,801.8828588886619
20,2,incongruent,green,blue,g,562.549870524641
20,3,incongruent,yellow,red,r,615.7051427405598
20,4,incongruent,yellow,green,b,511.3511147488141
20,5,congruent,green,green,b,722.1267933657899
20,6,incongruent,blue,red,b,733.0795586476933
20,7,incongruent,blue,green,r,699.0767417469175
20,8,congruent,green,green,r,674.0051574766252
20,9,congruent,yellow,yellow,g,677.4307907082648
20,10,incongruent,green,red,y,733.5137796439104
20,11,congruent,red,red,g,737.7495014939736
20,12,congruent,blue,blue,b,749.0730216793645
20,13,incongruent,blue,red,y,668.2228616197777
20,14,incongruent,blue,red,b,573.8721561013899
20,15,congruent,red,red,y,677.4802423741623
20,16,incongruent,yellow,red,r,738.9474516890529
20,17,congruent,red,red,y,849.9856860554247
20,18,congruent,yellow,yellow,g,681.75966268772
20,19,congruent,green,green,y,736.3535307198457
20,20,incongruent,yellow,blue,b,699.5591165598148
20,21,congruent,blue,blue,b,742.9398128141512
20,22,congruent,green,green,b,566.3223207089037
20,23,incongruent,red,yellow,g,694.6771263337827
20,24,incongruent,blue,yellow,y,654.3563592622793
20,25,congruent,green,green,y,749.081989769444
20,26,incongruent,blue,green,b,719.8085973595754
20,27,congruent,green,green,g,729.2559290121447
20,28,congruent,yellow,yellow,r,564.3884427017227
20,29,congruent,red,red,r,664.8101662181992
20,30,congruent,blue,blue,r,699.431712096342
20,31,incongruent,yellow,red,y,517.1015160227644
20,32,incongruent,blue,green,y,620.5677394689427
20,33,congruent,blue,blue,y,777.1853011670144
20,34,incongruent,blue,green,b,731.797968765355
20,35,congruent,green,green,r,570.3346631407512
20,36,incongruent,red,green,r,686.4967234748209
20,37,incongruent,yellow,green,g,594.9222448681687
20,38,congruent,red,red,g,818.7835909214924
20,39,incongruent,green,yellow,b,632.3327265443955
20,40,incongruent,yellow,green,b,740.3623658773437
21,1,congruent,blue,blue,g,753.7274022127914
21,2,congruent,blue,blue,b,731.0100225764984
21,3,congruent,green,green,r,834.3909821839485
21,4,incongruent,yellow,red,b,1069.4893712979829
21,5,congruent,red,red,r,765.7265462143073
21,6,congruent,green,green,y,759.3258431488105
21,7,incongruent,yellow,blue,g,1007.5538850975474
21,8,incongruent,blue,green,b,799.9607772232877
21,9,incongruent,red,yellow,g,900.383715853602
21,10,congruent,yellow,yellow,g,536.5904544495631
21,11,incongruent,red,yellow,b,1011.355556908266
21,12,incongruent,yellow,blue,y,970.880435670814
21,13,incongruent,yellow,green,r,882.6765409610418
21,14,congruent,yellow,yellow,g,612.001337422901
21,15,incongruent,red,blue,r,1032.515904920654
21,16,congruent,green,green,y,640.5484609898982
21,17,congruent,blue,blue,y,724.560356329348
21,18,incongruent,blue,green,b,952.6673111132532
21,19,incongruent,yellow,green,g,854.6009023294969
21,20,incongruent,red,yellow,y,972.0970754295182
21,21,congruent,red,red,b,759.329121196207
21,22,congruent,yellow,yellow,b,759.3736753342727
21,23,congruent,green,green,b,663.5025951957773
21,24,incongruent,blue,yellow,r,941.536527775488
21,25,congruent,yellow,yellow,b,721.691685879707
21,26,congruent,yellow,yellow,b,910.1371463295666
21,27,incongruent,red,green,r,849.8512289583209
21,28,congruent,yellow,yellow,b,805.640055030479
21,29,incongruent,blue,red,y,832.80735145395
21,30,incongruent,yellow,green,r,900.818754985601
21,31,incongruent,green,red,b,932.8281384338306
21,32,incongruent,green,red,y,808.0847216109397
21,33,incongruent,red,blue,g,926.7536094380592
21,34,congruent,blue,blue,g,829.4587766700329
21,35,incongruent,green,blue,r,1011.3269113858404
21,36,congruent,yellow,yellow,b,748.7522516223186
21,37,incongruent,yellow,red,g,918.7019171525056
21,38,congruent,red,red,y,802.944421061233
21,39,congruent,blue,blue,b,731.1738721629565
21,40,congruent,yellow,yellow,g,684.5830619893852
22,1,congruent,yellow,yellow,b,910.2706835996768
22,2,congruent,yellow,yellow,r,1035.0208956836918
22,3,incongruent,blue,yellow,y,1062.011896525184
22,4,congruent,yellow,yellow,b,856.8486992462066
22,5,congruent,red,red,b,902.7556813852868
22,6,congruent,yellow,yellow,g,868.4599879418826
22,7,incongruent,yellow,green,y,1221.779288246635
22,8,incongruent,yellow,blue,y,1195.1029687061146
22,9,congruent,blue,blue,g,1119.9199190074178
22,10,incongruent,yellow,green,g,1040.1588649010807
22,11,incongruent,red,blue,g,1231.0088287918848
22,12,congruent,green,green,b,853.6458081071045
22,13,incongruent,yellow,blue,b,1287.352596611045
22,14,congruent,blue,blue,b,986.4476164854466
22,15,congruent,blue,blue,y,897.3381991890632
22,16,incongruent,yellow,red,g,1335.5370051758005
22,17,incongruent,green,blue,b,1264.5741880979465
22,18,congruent,red,red,y,788.4232459142262
22,19,incongruent,blue,red,y,1142.7847748719728
22,20,incongruent,yellow,red,r,1043.330840762733
22,21,congruent,yellow,yellow,b,950.1125867015188
22,22,incongruent,yellow,blue,g,1089.1161755202395
22,23,congruent,blue,blue,g,957.114548441555
22,24,congruent,red,red,r,812.6378075284854
22,25,incongruent,green,blue,y,1249.997275198
22,26,incongruent,green,blue,b,1203.576230207887
22,27,incongruent,yellow,blue,b,1142.691590662616
22,28,incongruent,red,green,r,982.47671016148
22,29,congruent,green,green,y,877.0577728938281
22,30,congruent,blue,blue,b,844.3793496853631
22,31,congruent,yellow,yellow,b,1034.3748249258497
22,32,congruent,blue,blue,y,916.8678778008738
22,33,congruent,red,red,y,988.755652186338
22,34,incongruent,yellow,green,y,1278.7562164651788
22,35,congruent,red,red,b,1090.800016988832
22,36,incongruent,green,yellow,y,1118.2321215206096
22,37,incongruent,blue,red,b,1204.1916902406588
22,38,incongruent,blue,yellow,r,1020.1362341799004
22,39,incongruent,red,blue,y,1120.7449231530318
22,40,congruent,yellow,yellow,g,903.049708287354
23,1,congruent,yellow,yellow,r,687.9550464722768
23,2,incongruent,yellow,blue,g,829.0908409939925
23,3,congruent,red,red,b,706.834350934955
23,4,incongruent,yellow,blue,b,749.9977682621409
23,5,congruent,blue,blue,y,640.4751159339424
23,6,incongruent,blue,red,r,1023.520103999675
23,7,incongruent,red,blue,g,811.2668174866321
23,8,incongruent,yellow,green,b,1008.0489305876424
23,9,incongruent,red,blue,y,979.165311993224
23,10,incongruent,blue,red,b,916.3634460787152
23,11,incongruent,blue,green,y,916.5010434370224
23,12,congruent,green,green,b,612.5910828919174
23,13,congruent,red,red,b,653.8551983200995
23,14,congruent,yellow,yellow,r,705.2599584022054
23,15,congruent,yellow,yellow,r,620.3103134454497
23,16,incongruent,green,red,r,1098.4319323974214
23,17,incongruent,green,blue,g,913.2248705584748
23,18,congruent,yellow,yellow,y,688.153989373003
23,19,congruent,red,red,b,579.3580589174956
23,20,congruent,blue,blue,g,766.3484685400847
23,21,congruent,green,green,y,607.5028907718935
23,22,incongruent,red,blue,g,842.4305534101026
23,23,incongruent,red,blue,y,1019.8655474102422
23,24,congruent,green,green,b,705.5186798304272
23,25,incongruent,blue,green,g,958.4697834313496
23,26,incongruent,yellow,red,g,888.510483079047
23,27,congruent,red,red,g,698.3632086529515
23,28,congruent,blue,blue,r,700.2950414732588
23,29,congruent,yellow,yellow,b,814.9538085230081
23,30,incongruent,blue,red,y,925.4175110750724
23,31,congruent,yellow,yellow,y,711.974103350767
23,32,congruent,yellow,yellow,y,713.6346830801031
23,33,congruent,green,green,b,590.9118349541043
23,34,incongruent,blue,red,r,900.4695400205786
23,35,incongruent,green,yellow,g,797.5728464525722
23,36,incongruent,blue,yellow,g,738.3843311525804
23,37,incongruent,yellow,red,y,939.5828251362508
23,38,incongruent,blue,green,b,980.1246290372624
23,39,congruent,yellow,yellow,r,585.6208886972025
23,40,congruent,yellow,yellow,g,589.4307614348543
24,1,incongruent,yellow,green,b,810.2182922178224
24,2,congruent,yellow,yellow,b,964.6067280103488
24,3,congruent,red,red,y,922.47980652555
24,4,congruent,red,red,b,912.9584525291676
24,5,incongruent,green,blue,g,749.7235772579022
24,6,incongruent,green,red,b,855.1301752153273
24,7,incongruent,red,blue,g,717.0904741471259
24,8,incongruent,green,red,g,859.331591459089
24,9,congruent,green,green,y,983.331603820827
24,10,congruent,red,red,b,1035.544484458068
24,11,congruent,blue,blue,b,896.9975447177652
24,12,congruent,green,green,g,945.821057398947
24,13,congruent,red,red,b,872.4569232155397
24,14,congruent,yellow,yellow,b,875.1735615657334
24,15,incongruent,red,blue,b,875.2861438073337
24,16,incongruent,blue,red,b,865.5298240042525
24,17,congruent,red,red,g,913.1467711945936
24,18,incongruent,green,yellow,g,930.7660650018092
24,19,incongruent,green,yellow,y,711.9658185139638
24,20,congruent,red,red,r,945.219062507536
24,21,incongruent,yellow,blue,r,835.538194294462
24,22,incongruent,yellow,blue,r,733.150459076704
24,23,congruent,green,green,g,959.3203138757924
24,24,incongruent,red,green,b,825.0577321235949
24,25,incongruent,yellow,green,b,779.2724605941867
24,26,incongruent,yellow,green,y,864.4960381547148
24,27,congruent,green,green,b,822.7393637384736
24,28,congruent,yellow,yellow,b,1129.1586439388664
24,29,congruent,red,red,r,912.412721507799
24,30,incongruent,green,blue,y,793.8305528209978
24,31,incongruent,yellow,red,g,871.6751413203947
24,32,congruent,green,green,g,930.3472975709276
24,33,incongruent,blue,red,y,923.268386055496
24,34,incongruent,red,yellow,r,766.4089283495898
24,35,incongruent,red,blue,r,1007.373590143614
24,36,congruent,blue,blue,r,929.2351473763996
24,37,congruent,blue,blue,b,927.1958359847702
24,38,incongruent,blue,yellow,b,818.0411254416184
24,39,congruent,blue,blue,g,1039.5694256034396
24,40,congruent,red,red,b,884.0854024594561
25,1,congruent,blue,blue,g,799.968781582562
25,2,incongruent,green,red,b,767.4232765062103
25,3,congruent,green,green,y,854.1810387544768
25,4,congruent,green,green,y,850.833094032476
25,5,incongruent,red,green,g,756.0008453934458
25,6,incongruent,green,blue,y,628.4422589447921
25,7,congruent,yellow,yellow,r,677.5575021670394
25,8,congruent,yellow,yellow,g,850.1928542293219
25,9,incongruent,red,green,g,549.0726824844212
25,10,incongruent,red,yellow,y,593.6684552673509
25,11,incongruent,green,red,r,615.0739570264176
25,12,congruent,yellow,yellow,y,758.3354969127824
25,13,congruent,green,green,g,758.5749714606726
25,14,congruent,red,red,r,852.035470499906
25,15,congruent,green,green,y,852.8440775218061
25,16,congruent,green,green,y,726.5583116657413
25,17,congruent,red,red,b,698.5763500008686
25,18,incongruent,green,yellow,b,671.3754359714686
25,19,congruent,green,green,r,858.1675463213189
25,20,incongruent,green,yellow,r,526.9211803905828
25,21,congruent,blue,blue,y,840.2510546845856
25,22,incongruent,red,green,g,545.0409175461906
25,23,congruent,red,red,r,925.3388297127016
25,24,congruent,yellow,yellow,y,712.7640073365023
25,25,incongruent,yellow,red,g,550.3219683709775
25,26,incongruent,blue,yellow,r,617.9446397882041
25,27,incongruent,yellow,blue,r,697.9799003926661
25,28,congruent,green,green,b,909.1878423554288
25,29,incongruent,green,yellow,g,610.5716400540651
25,30,incongruent,yellow,green,b,660.0675130063963
25,31,congruent,green,green,r,1030.4237209202374
25,32,congruent,green,green,b,782.4930557417595
25,33,incongruent,yellow,blue,b,819.4141698105049
25,34,incongruent,yellow,green,b,593.1998754711763
25,35,incongruent,yellow,blue,g,720.650494189117
25,36,incongruent,green,red,g,689.0702044847892
25,37,congruent,yellow,yellow,r,858.9904110179401
25,38,incongruent,blue,yellow,r,573.4504174156274
25,39,incongruent,red,blue,b,627.8111954855965
25,40,congruent,blue,blue,b,820.6344630818732
26,1,incongruent,yellow,green,y,1044.878914834738
26,2,congruent,green,green,b,818.3207119255791
26,3,incongruent,green,yellow,r,1058.7705151085424
26,4,congruent,yellow,yellow,y,823.3346790800733
26,5,incongruent,blue,green,r,1172.7697360217862
26,6,incongruent,yellow,blue,y,1186.2610629944008
26,7,congruent,yellow,yellow,r,826.2037866206631
26,8,incongruent,blue,yellow,b,964.1300424325416
26,9,incongruent,yellow,blue,r,1074.0820855527058
26,10,congruent,green,green,b,720.1602166999626
26,11,congruent,blue,blue,y,786.4568667106861
26,12,congruent,yellow,yellow,r,702.404583171734
26,13,congruent,red,red,g,723.6927222131515
26,14,congruent,blue,blue,y,821.5600384867632
26,15,incongruent,red,blue,r,1074.752520405291
26,16,incongruent,blue,green,y,1003.844511799812
26,17,congruent,blue,blue,b,996.6532100531244
26,18,incongruent,red,green,r,944.7311402724728
26,19,congruent,yellow,yellow,g,705.8596748980437
26,20,congruent,green,green,g,801.9182009551251
26,21,incongruent,green,red,r,1153.708065241099
26,22,incongruent,red,blue,r,1064.4964825980774
26,23,congruent,blue,blue,g,1027.1479119579058
26,24,congruent,red,red,y,792.7826095727194
26,25,incongruent,yellow,green,b,908.6063717770649
26,26,incongruent,red,green,g,1112.357656502203
26,27,incongruent,blue,green,g,1152.3717177545648
26,28,incongruent,red,yellow,r,1027.3587569167832
26,29,incongruent,blue,green,y,1098.183621816599
26,30,congruent,blue,blue,g,943.2964092526016
26,31,congruent,green,green,g,840.879176677692
26,32,congruent,green,green,b,1029.9347021144986
26,33,congruent,green,green,y,599.4091982212235
26,34,incongruent,green,red,b,1115.3342519499358
26,35,congruent,blue,blue,r,767.5998754842988
26,36,congruent,blue,blue,r,858.1724792453459
26,37,incongruent,blue,green,y,1027.4518203916912
26,38,incongruent,blue,green,g,949.534508312276
26,39,incongruent,blue,green,b,1061.8394173174122
26,40,congruent,red,red,r,886.6024966588083
27,1,incongruent,green,red,g,881.9071930036005
27,2,incongruent,red,blue,g,919.9997878827738
27,3,congruent,green,green,b,808.0333695663029
27,4,incongruent,green,yellow,g,996.4698797061484
27,5,congruent,red,red,b,921.2950317158652
27,6,incongruent,yellow,blue,b,1010.177217892817
27,7,congruent,red,red,g,819.6515071923382
27,8,incongruent,yellow,red,r,956.0401577221336
27,9,congruent,green,green,g,928.7862115720428
27,10,congruent,green,green,r,910.6824848659054
27,11,incongruent,blue,red,b,922.4466743059417
27,12,congruent,yellow,yellow,b,877.0532876116212
27,13,incongruent,yellow,green,b,1011.8498451140582
27,14,incongruent,green,red,r,890.964672848611
27,15,congruent,green,green,r,888.6289149766761
27,16,incongruent,red,green,y,942.2917641007792
27,17,congruent,green,green,b,976.800570333166
27,18,congruent,green,green,g,802.3799467216545
27,19,congruent,blue,blue,g,1024.3083049881102
27,20,incongruent,red,green,g,1051.9626490696594
27,21,incongruent,blue,green,y,1005.6617649099596
27,22,incongruent,red,yellow,b,1111.3670216224778
27,23,congruent,blue,blue,r,863.3011535009606
27,24,congruent,yellow,yellow,b,802.5356857529601
27,25,incongruent,blue,red,b,910.5980344497356
27,26,incongruent,red,blue,b,960.5940155708038
27,27,incongruent,blue,green,g,886.9954283945926
27,28,congruent,yellow,yellow,b,888.5319926726339
27,29,incongruent,red,green,r,1058.3297375135933
27,30,incongruent,red,blue,y,1087.5935295445124
27,31,congruent,red,red,r,779.0916596862021
27,32,incongruent,blue,yellow,b,963.3486695766904
27,33,congruent,yellow,yellow,r,932.6581539225224
27,34,incongruent,yellow,red,b,939.2832182612822
27,35,congruent,red,red,r,930.9441538269826
27,36,congruent,green,green,y,868.9800019934714
27,37,congruent,blue,blue,y,941.4742625676045
27,38,congruent,yellow,yellow,b,844.6092629690007
27,39,incongruent,green,yellow,r,932.9640365098296
27,40,congruent,blue,blue,r,921.8071515639806
28,1,congruent,blue,blue,y,735.1857418040662
28,2,congruent,red,red,r,742.1441713792456
28,3,congruent,yellow,yellow,b,607.4709323049224
28,4,incongruent,yellow,green,b,927.4402562555872
28,5,congruent,blue,blue,r,638.8833900824566
28,6,incongruent,red,yellow,g,984.7755904151658
28,7,incongruent,blue,green,b,933.5480050938386
28,8,incongruent,blue,yellow,y,1005.3389355698224
28,9,congruent,red,red,r,841.7643062079958
28,10,congruent,green,green,y,669.7701170878973
28,11,incongruent,yellow,red,y,884.4340919698233
28,12,incongruent,yellow,blue,b,841.8826728894007
28,13,congruent,green,green,r,618.0390934669556
28,14,incongruent,blue,green,r,870.7315308910308
28,15,incongruent,blue,red,g,808.6628071747259
28,16,congruent,red,red,r,728.0887704515011
28,17,congruent,yellow,yellow,b,724.4912504863838
28,18,congruent,blue,blue,r,653.144767694641
28,19,congruent,yellow,yellow,g,762.8281130970313
28,20,incongruent,green,red,r,847.4474623994411
28,21,incongruent,green,yellow,r,845.800279163521
28,22,incongruent,blue,yellow,y,933.6239100004804
28,23,incongruent,yellow,red,r,986.737780115847
28,24,congruent,yellow,yellow,b,499.16826538389773
28,25,congruent,red,red,g,549.4910370150449
28,26,congruent,yellow,yellow,y,715.9705579329309
28,27,congruent,green,green,g,554.011826224574
28,28,incongruent,blue,yellow,g,898.8088119123698
28,29,congruent,yellow,yellow,g,707.8115106552555
28,30,congruent,yellow,yellow,b,770.7407593420681
28,31,incongruent,green,yellow,b,1114.684933187307
28,32,incongruent,red,green,b,815.1260797754319
28,33,incongruent,blue,yellow,g,994.0051665296012
28,34,congruent,green,green,g,724.9037835282237
28,35,incongruent,blue,red,y,915.1102639499558
28,36,incongruent,red,yellow,y,760.2891764354847
28,37,incongruent,yellow,blue,r,1046.750418441383
28,38,congruent,green,green,r,772.6106716484603
28,39,incongruent,blue,yellow,y,997.2989438297828
28,40,congruent,red,red,g,830.9531482064478
29,1,incongruent,blue,yellow,r,1034.468490263037
29,2,incongruent,blue,red,r,981.1815346046124
29,3,incongruent,yellow,red,g,996.3567986461036
29,4,incongruent,green,blue,g,998.54806283681
29,5,congruent,blue,blue,g,617.5159505909327
29,6,congruent,blue,blue,r,543.4975642580282
29,7,congruent,green,green,g,780.5966090341119
29,8,incongruent,red,green,r,957.3200123872526
29,9,congruent,yellow,yellow,b,795.303178863073
29,10,congruent,blue,blue,r,613.4983608563309
29,11,incongruent,red,blue,b,965.3374082091776
29,12,incongruent,red,blue,g,1137.0543919898787
29,13,congruent,green,green,r,661.2784778320284
29,14,incongruent,yellow,blue,b,930.224391570051
29,15,congruent,red,red,y,692.9607539293173
29,16,incongruent,yellow,green,b,1120.8379365925648
29,17,congruent,red,red,y,633.4715889691039
29,18,congruent,green,green,b,587.1328265465903
29,19,congruent,green,green,y,923.695091843732
29,20,congruent,green,green,b,626.997837960852
29,21,congruent,yellow,yellow,y,708.1957453321911
29,22,incongruent,green,red,r,1049.3153791109144
29,23,incongruent,green,yellow,g,1048.274474514124
29,24,incongruent,red,yellow,g,1072.3566762457986
29,25,incongruent,red,blue,y,1020.5140807886116
29,26,congruent,green,green,y,653.7152593068372
29,27,incongruent,blue,yellow,b,1032.824062188963
29,28,congruent,green,green,g,706.4535437208374
29,29,incongruent,yellow,green,r,948.4437721208246
29,30,incongruent,blue,green,g,958.2001992213904
29,31,congruent,blue,blue,y,590.3818830433975
29,32,congruent,blue,blue,b,664.9685524874154
29,33,incongruent,green,red,b,1047.3353165573071
29,34,incongruent,blue,yellow,g,1038.9201133723143
29,35,incongruent,blue,red,y,1030.6106417211197
29,36,congruent,green,green,y,554.0240584258037
29,37,congruent,blue,blue,g,772.8955312531128
29,38,incongruent,yellow,red,b,998.7486170591446
29,39,congruent,yellow,yellow,g,607.5323680710031
29,40,congruent,yellow,yellow,g,656.4201776753004
30,1,incongruent,blue,red,y,728.2747043308664
30,2,incongruent,red,green,g,699.9086692202821
30,3,congruent,green,green,b,546.6239622555166
30,4,congruent,yellow,yellow,b,698.9013182283541
30,5,incongruent,yellow,blue,b,696.6200661957929
30,6,incongruent,yellow,blue,g,713.4868305691224
30,7,incongruent,yellow,blue,g,941.1959877700244
30,8,incongruent,red,blue,r,778.9453758041191
30,9,incongruent,red,green,g,881.9341648282027
30,10,incongruent,red,green,b,589.7949219101874
30,11,incongruent,blue,green,b,775.7114929380928
30,12,congruent,blue,blue,y,565.8263230825944
30,13,incongruent,green,blue,b,778.2364081128959
30,14,congruent,blue,blue,y,662.0502895490946
30,15,congruent,yellow,yellow,y,707.3112412259131
30,16,congruent,yellow,yellow,r,656.0780454801477
30,17,incongruent,red,yellow,g,701.1901697886403
30,18,congruent,yellow,yellow,b,769.5996495326522
30,19,congruent,red,red,y,702.842179273913
30,20,incongruent,red,yellow,g,709.2030628538262
30,21,congruent,blue,blue,b,769.0502155938588
30,22,incongruent,red,yellow,y,859.1878469448491
30,23,incongruent,green,yellow,g,814.2631931378032
30,24,congruent,green,green,y,700.1179382670053
30,25,incongruent,blue,red,b,741.1458575573057
30,26,incongruent,blue,green,y,740.1217589056251
30,27,congruent,blue,blue,r,736.0258525962374
30,28,congruent,red,red,g,631.5454172827269
30,29,congruent,green,green,g,826.7112724587986
30,30,incongruent,blue,red,y,795.5417098615839
30,31,congruent,blue,blue,g,605.0217561541
30,32,congruent,blue,blue,r,681.4693828841941
30,33,congruent,green,green,y,721.4615580504501
30,34,incongruent,yellow,blue,b,930.8851249763512
30,35,incongruent,yellow,blue,b,762.2232233799656
30,36,congruent,blue,blue,b,645.90933955247
30,37,congruent,yellow,yellow,g,748.9409150732645
30,38,congruent,red,red,b,815.4502785816197
30,39,incongruent,red,blue,r,880.8896829144634
30,40,congruent,red,red,y,738.9314408770888
31,1,congruent,red,red,g,918.4523749216308
31,2,incongruent,yellow,red,g,873.7925424683738
31,3,congruent,red,red,g,723.2032248695018
31,4,incongruent,green,yellow,r,807.235003714588
31,5,congruent,red,red,b,751.8959263672292
31,6,incongruent,blue,yellow,g,919.4486501936852
31,7,incongruent,blue,yellow,g,1021.7696483511036
31,8,congruent,green,green,g,676.4004284627911
31,9,congruent,green,green,r,900.7495867734548
31,10,congruent,blue,blue,y,731.2963054124758
31,11,incongruent,yellow,green,g,1007.7731856811274
31,12,congruent,green,green,b,771.2549666104798
31,13,congruent,blue,blue,r,938.970003679504
31,14,congruent,red,red,g,839.4394506263391
31,15,incongruent,yellow,green,g,985.095827699143
31,16,incongruent,blue,yellow,b,1109.5202408406976
31,17,incongruent,green,blue,y,902.2213092424188
31,18,incongruent,blue,red,g,780.0630436225367
31,19,congruent,blue,blue,r,873.8786714760937
31,20,incongruent,blue,yellow,y,986.7934535925632
31,21,incongruent,red,green,g,864.9266395689483
31,22,congruent,green,green,y,938.0633310494204
31,23,incongruent,green,yellow,g,928.3860011859208
31,24,incongruent,green,yellow,b,885.0247568236945
31,25,incongruent,yellow,red,g,940.0851438810822
31,26,incongruent,red,green,b,798.4712847902906
31,27,incongruent,blue,green,y,982.2149830596982
31,28,incongruent,yellow,red,y,921.97599033087
31,29,incongruent,green,blue,b,936.918292737455
31,30,congruent,yellow,yellow,y,789.7295875454683
31,31,incongruent,yellow,green,b,1046.1299509079504
31,32,incongruent,green,yellow,r,1033.9865053078538
31,33,congruent,green,green,y,866.4773981842378
31,34,congruent,red,red,b,757.3753957933784
31,35,congruent,green,green,y,871.778630000959
31,36,congruent,blue,blue,r,811.1677707041432
31,37,congruent,red,red,r,916.39366693435
31,38,congruent,yellow,yellow,y,790.4960027278318
31,39,congruent,green,green,g,899.9184063666315
31,40,congruent,yellow,yellow,y,816.1546894940801
32,1,congruent,yellow,yellow,r,577.1920903531023
32,2,congruent,yellow,yellow,y,672.0167178454695
32,3,congruent,blue,blue,r,709.4351493022493
32,4,congruent,yellow,yellow,y,771.3187290234558
32,5,incongruent,red,yellow,g,809.6910963550566
32,6,congruent,red,red,g,769.7476238137597
32,7,incongruent,green,yellow,y,795.095645408294
32,8,congruent,green,green,y,701.2748770854973
32,9,incongruent,red,yellow,g,778.9398781111082
32,10,incongruent,green,red,b,710.9146872038577
32,11,incongruent,green,yellow,g,834.2782888032518
32,12,incongruent,green,blue,g,768.604364809402
32,13,congruent,blue,blue,g,721.8615897199568
32,14,incongruent,yellow,green,b,714.0075342103701
32,15,incongruent,green,yellow,y,719.0267383037985
32,16,incongruent,yellow,blue,y,725.5255766580259
32,17,congruent,green,green,y,704.7285605217314
32,18,congruent,red,red,g,599.2844830578624
32,19,incongruent,yellow,red,b,694.6341784176282
32,20,incongruent,blue,red,g,723.5487991917392
32,21,incongruent,green,yellow,r,804.6791110809759
32,22,incongruent,red,green,g,752.8137444796735
32,23,congruent,green,green,b,688.2596353047077
32,24,congruent,blue,blue,b,692.0625114346631
32,25,incongruent,red,green,g,710.8923180824818
32,26,congruent,green,green,r,568.9582619173552
32,27,incongruent,red,green,r,697.2470961659949
32,28,congruent,yellow,yellow,b,594.641359862543
32,29,incongruent,red,green,g,779.9012917653224
32,30,congruent,blue,blue,y,741.5089818639846
32,31,congruent,green,green,r,760.6787446066012
32,32,congruent,blue,blue,r,688.3395298160664
32,33,incongruent,green,red,b,737.9893275940736
32,34,congruent,yellow,yellow,b,663.2932971847516
32,35,congruent,yellow,yellow,g,707.2053172369302
32,36,incongruent,green,blue,r,790.277872818776
32,37,incongruent,green,red,b,698.6240476684541
32,38,congruent,red,red,r,647.7977071193056
32,39,incongruent,green,red,y,753.7193268717167
32,40,congruent,yellow,yellow,y,605.1805309300081
33,1,incongruent,red,green,g,1134.4354996447737
33,2,incongruent,red,yellow,g,1028.238729910218
33,3,incongruent,yellow,red,y,946.3305247352124
33,4,incongruent,blue,green,r,1139.9023772219532
33,5,congruent,yellow,yellow,g,757.3546167625612
33,6,congruent,yellow,yellow,g,626.8329232288776
33,7,incongruent,red,blue,y,1091.1465143272285
33,8,congruent,red,red,r,710.5756454157239
33,9,incongruent,yellow,blue,y,1082.5369396495653
33,10,congruent,yellow,yellow,g,616.677127523184
33,11,incongruent,green,yellow,y,1042.285688592105
33,12,incongruent,red,blue,b,1189.9776251473336
33,13,incongruent,red,yellow,g,1116.551694137969
33,14,congruent,green,green,g,599.1543025070907
33,15,incongruent,red,green,y,1110.9158872627956
33,16,congruent,yellow,yellow,g,528.7132937351985
33,17,congruent,green,green,y,632.1008767161871
33,18,incongruent,yellow,blue,g,1022.5942248201516
33,19,incongruent,yellow,red,r,1111.396290577235
33,20,incongruent,blue,yellow,g,1022.5896485986722
33,21,congruent,green,green,y,634.8232860155969
33,22,incongruent,yellow,green,r,990.7460515101068
33,23,incongruent,blue,yellow,y,1044.285454710823
33,24,incongruent,red,yellow,y,1117.6654515937769
33,25,congruent,green,green,g,478.5767754289023
33,26,congruent,blue,blue,y,663.8858545802436
33,27,incongruent,yellow,blue,b,1007.0430962148596
33,28,incongruent,red,blue,y,984.9829090254952
33,29,congruent,green,green,b,452.80096760039066
33,30,congruent,blue,blue,g,779.7589200665491
33,31,congruent,yellow,yellow,r,633.7623724807532
33,32,congruent,yellow,yellow,y,644.5416021232213
33,33,congruent,green,green,y,690.179490767886
33,34,congruent,blue,blue,b,609.5502919192697
33,35,congruent,green,green,b,541.830283255749
33,36,congruent,red,red,g,568.2536498914704
33,37,incongruent,green,red,b,1183.7811863639135
33,38,incongruent,green,red,r,1056.8392259558104
33,39,congruent,blue,blue,r,647.1423978531087
33,40,congruent,yellow,yellow,g,632.3985781280363
34,1,congruent,green,green,r,878.593939201188
34,2,incongruent,blue,green,b,557.899913207297
34,3,incongruent,blue,green,b,504.68830097564546
34,4,incongruent,blue,yellow,r,779.81913731256
34,5,congruent,red,red,b,855.903687384406
34,6,congruent,blue,blue,g,1146.250152027966
34,7,congruent,red,red,y,1062.057902116917
34,8,incongruent,green,blue,r,556.725467711558
34,9,incongruent,yellow,green,g,607.6590763406762
34,10,congruent,green,green,b,958.9882933513152
34,11,incongruent,yellow,blue,y,554.9174288396099
34,12,incongruent,yellow,green,r,550.3329356878796
34,13,incongruent,yellow,green,y,691.6193622448752
34,14,congruent,yellow,yellow,g,937.9290156329332
34,15,congruent,yellow,yellow,y,977.38775732277
34,16,congruent,blue,blue,y,1265.303036017745
34,17,congruent,green,green,g,834.5470673295737
34,18,incongruent,blue,red,r,556.124652510694
34,19,incongruent,red,blue,g,497.8009557730022
34,20,incongruent,yellow,green,g,652.0089710683734
34,21,incongruent,green,yellow,b,601.8857700200139
34,22,congruent,blue,blue,y,844.9800117163734
34,23,incongruent,red,green,b,526.0784987790908
34,24,congruent,yellow,yellow,g,935.147111734272
34,25,congruent,blue,blue,g,947.3822150712144
34,26,incongruent,blue,yellow,g,652.0523557557217
34,27,incongruent,green,blue,b,619.0868506965273
34,28,congruent,blue,blue,g,976.9364475813755
34,29,congruent,blue,blue,b,965.9776719514986
34,30,incongruent,blue,green,b,736.1705509473726
34,31,incongruent,yellow,green,b,499.7071302499386
34,32,congruent,green,green,b,1010.6718029044582
34,33,incongruent,blue,yellow,y,643.6966381707607
34,34,congruent,green,green,y,1061.0837650545554
34,35,congruent,blue,blue,y,1043.866152946911
34,36,congruent,green,green,y,970.816091176752
34,37,incongruent,red,green,y,572.8084819352803
34,38,congruent,blue,blue,g,1092.0381952819544
34,39,incongruent,red,yellow,r,690.182271773124
34,40,congruent,red,red,g,985.0686061958204
35,1,incongruent,yellow,green,g,732.5429965634246
35,2,incongruent,red,blue,y,899.0330261015145
35,3,incongruent,blue,yellow,r,941.1844404550036
35,4,congruent,red,red,r,535.3456164753514
35,5,congruent,green,green,b,697.7676848019004
35,6,congruent,blue,blue,y,561.2095068500531
35,7,congruent,yellow,yellow,b,645.1219103016973
35,8,congruent,green,green,g,727.552126436797
35,9,congruent,blue,blue,r,686.6383798281067
35,10,incongruent,yellow,red,b,926.1920904362946
35,11,congruent,yellow,yellow,g,673.4248717519433
35,12,incongruent,yellow,green,b,948.0100173091832
35,13,incongruent,red,yellow,b,792.2436504912031
35,14,incongruent,red,yellow,g,923.7866965592574
35,15,incongruent,blue,green,r,795.0370350169395
35,16,incongruent,blue,red,r,804.1444818372697
35,17,incongruent,green,blue,g,934.6155808076776
35,18,incongruent,yellow,red,g,844.7471744656848
35,19,incongruent,red,blue,g,992.3617277541092
35,20,congruent,blue,blue,y,788.3320872180973
35,21,incongruent,green,blue,r,878.130612188573
35,22,congruent,yellow,yellow,b,592.1715473646962
35,23,incongruent,blue,green,y,925.4331028690132
35,24,congruent,red,red,g,685.9742650448355
35,25,incongruent,blue,green,y,953.0500591261008
35,26,congruent,blue,blue,r,739.955243693024
35,27,congruent,green,green,y,674.4903200566698
35,28,congruent,blue,blue,g,530.7703553589834
35,29,incongruent,blue,red,b,850.0679059120893
35,30,congruent,yellow,yellow,g,597.0087564097673
35,31,incongruent,yellow,green,y,903.4711995562792
35,32,incongruent,blue,red,b,982.0718560078355
35,33,congruent,blue,blue,b,740.7421033343342
35,34,incongruent,red,yellow,g,925.74096242841
35,35,congruent,green,green,g,622.6321682453308
35,36,incongruent,red,blue,b,974.6151381141368
35,37,congruent,blue,blue,b,541.6972198839213
35,38,congruent,blue,blue,r,542.8738506571328
35,39,congruent,yellow,yellow,r,522.7036210931652
35,40,congruent,blue,blue,y,706.4088691941926
36,1,congruent,red,red,r,748.6042331965612
36,2,incongruent,green,red,g,874.901304378375
36,3,congruent,yellow,yellow,b,822.4076968225038
36,4,congruent,yellow,yellow,r,735.4588060096173
36,5,congruent,blue,blue,r,815.1007768626678
36,6,congruent,green,green,g,831.9565962666497
36,7,congruent,yellow,yellow,r,804.1797036242771
36,8,incongruent,blue,yellow,y,659.5940703964123
36,9,congruent,green,green,g,779.0173894750981
36,10,congruent,yellow,yellow,b,671.0234491378127
36,11,congruent,green,green,b,782.5041144797074
36,12,congruent,green,green,b,809.7712902852398
36,13,incongruent,blue,red,y,819.6254739075821
36,14,congruent,yellow,yellow,b,723.3800203561665
36,15,congruent,red,red,b,867.0867309046039
36,16,congruent,green,green,b,621.7865241738882
36,17,incongruent,yellow,green,b,937.9754795487742
36,18,incongruent,blue,red,r,852.8500273679257
36,19,incongruent,yellow,red,y,748.4510883590797
36,20,incongruent,blue,green,r,943.0478414378516
36,21,congruent,green,green,y,861.508572040345
36,22,congruent,red,red,g,798.5916917151244
36,23,incongruent,green,yellow,r,827.6862085964359
36,24,incongruent,yellow,green,y,928.0047700777912
36,25,incongruent,blue,yellow,y,863.2036699929578
36,26,incongruent,yellow,green,g,898.6251147220682
36,27,congruent,red,red,r,664.3763786644031
36,28,incongruent,green,yellow,r,906.7057297659588
36,29,congruent,green,green,y,704.6886847419082
36,30,incongruent,blue,yellow,r,928.7205318815307
36,31,congruent,blue,blue,b,804.2000517154019
36,32,incongruent,red,yellow,y,958.4505814736297
36,33,incongruent,red,green,r,867.2110978549584
36,34,incongruent,green,blue,r,701.7470001386132
36,35,incongruent,yellow,green,y,904.6906062090342
36,36,congruent,red,red,r,763.1183499460961
36,37,congruent,blue,blue,b,776.1221035819277
36,38,incongruent,red,blue,b,838.9073212558784
36,39,incongruent,blue,red,g,913.489711749896
36,40,incongruent,blue,yellow,b,1001.6549668852472
37,1,incongruent,red,green,y,791.5792332675231
37,2,congruent,red,red,b,665.465323901162
37,3,congruent,blue,blue,r,826.1353336773127
37,4,incongruent,blue,red,b,708.390788931862
37,5,incongruent,yellow,red,b,754.6359831291064
37,6,congruent,red,red,b,749.9829439215802
37,7,congruent,red,red,g,784.2668413652023
37,8,congruent,red,red,b,823.04185690538975
37,9,incongruent,yellow,blue,b,672.3186547794392
37,10,incongruent,yellow,green,y,817.8699825070229
37,11,incongruent,green,blue,b,811.7403163593403
37,12,incongruent,red,yellow,g,633.9981082035658
37,13,congruent,red,red,g,760.3931069960246
37,14,incongruent,green,yellow,y,629.7133743494409
37,15,congruent,red,red,r,825.8393051188357
37,16,congruent,blue,blue,b,577.0094086918759
37,17,congruent,blue,blue,g,785.7946316981258
37,18,incongruent,blue,red,g,828.5887330101127
37,19,incongruent,green,blue,y,766.2798271027184
37,20,congruent,yellow,yellow,g,713.5118051560896
37,21,incongruent,red,yellow,b,642.7653147462336
37,22,congruent,red,red,r,621.9296797472689
37,23,congruent,red,red,b,777.303261784703
37,24,incongruent,blue,green,y,731.7191987766446
37,25,incongruent,red,green,b,700.4861605000469
37,26,congruent,green,green,y,715.7434658247803
37,27,incongruent,blue,red,b,771.6994408388388
37,28,incongruent,blue,yellow,b,866.0539286684466
37,29,congruent,green,green,r,676.2336422413956
37,30,congruent,blue,blue,r,757.0990043368727
37,31,incongruent,blue,yellow,b,836.2135415901753
37,32,congruent,blue,blue,b,743.5837995523436
37,33,incongruent,blue,green,g,711.4400267674008
37,34,congruent,green,green,b,760.9394335944957
37,35,congruent,red,red,r,762.1851787396371
37,36,incongruent,blue,yellow,y,832.8378417760812
37,37,incongruent,green,yellow,y,768.8196535592418
37,38,incongruent,red,blue,b,761.7016691367595
37,39,congruent,red,red,r,864.3369063674432
37,40,congruent,red,red,r,556.884308379462
38,1,incongruent,blue,yellow,b,994.8704290255716
38,2,congruent,yellow,yellow,g,645.4413918223063
38,3,congruent,yellow,yellow,g,632.4108423595035
38,4,incongruent,yellow,red,b,800.1127661869982
38,5,congruent,blue,blue,b,485.3694741058878
38,6,congruent,green,green,r,527.0688577890318
38,7,congruent,red,red,b,751.1929325985507
38,8,congruent,blue,blue,b,627.0160508061118
38,9,incongruent,yellow,green,b,874.8588442752881
38,10,congruent,blue,blue,r,679.7212484290617
38,11,congruent,green,green,b,511.13683345176344
38,12,incongruent,green,yellow,g,815.3100876489015
38,13,incongruent,blue,red,b,801.0847183696147
38,14,incongruent,red,green,r,906.6513338655476
38,15,congruent,red,red,g,756.7650254722686
38,16,congruent,yellow,yellow,g,486.5716459334757
38,17,incongruent,red,green,g,700.0649525163043
38,18,incongruent,yellow,green,b,797.1192757124844
38,19,incongruent,yellow,blue,b,914.321747100178
38,20,congruent,yellow,yellow,g,609.3463629196315
38,21,congruent,blue,blue,b,591.1940570741464
38,22,congruent,green,green,r,512.315591763269
38,23,incongruent,red,blue,b,759.0144090564896
38,24,incongruent,green,red,y,853.9824954606269
38,25,congruent,green,green,r,655.5363448387212
38,26,congruent,red,red,g,668.7353800337278
38,27,congruent,yellow,yellow,g,661.1646679248796
38,28,incongruent,red,green,r,802.6221068460485
38,29,congruent,yellow,yellow,b,651.5904587080814
38,30,incongruent,blue,green,r,805.6334491538632
38,31,incongruent,green,red,b,915.0248964774196
38,32,incongruent,red,yellow,r,867.5927702947314
38,33,congruent,blue,blue,g,635.4763241487177
38,34,incongruent,yellow,blue,b,752.5255041429324
38,35,incongruent,yellow,red,b,885.5981364576025
38,36,congruent,blue,blue,r,560.9853878605234
38,37,incongruent,blue,green,g,754.7108346505946
38,38,incongruent,green,red,r,879.2785644370905
38,39,congruent,green,green,r,574.0968419603416
38,40,incongruent,green,red,b,897.0740563217142
39,1,incongruent,yellow,blue,y,931.1413280610316
39,2,congruent,red,red,y,860.4222846446822
39,3,incongruent,yellow,blue,b,908.4787100463204
39,4,incongruent,green,yellow,g,817.8247142874746
39,5,incongruent,green,blue,b,736.6968467305616
39,6,congruent,yellow,yellow,r,780.6454788429282
39,7,congruent,yellow,yellow,b,756.6930982612623
39,8,incongruent,blue,yellow,g,814.6144648747814
39,9,incongruent,green,red,y,841.901142839516
39,10,congruent,blue,blue,r,765.3281269847356
39,11,congruent,green,green,g,780.197377710939
39,12,congruent,green,green,b,797.897262286449
39,13,congruent,blue,blue,g,758.6252258303873
39,14,congruent,green,green,g,672.6578245526923
39,15,incongruent,red,blue,r,758.9006440910218
39,16,incongruent,red,blue,g,695.8811899447263
39,17,incongruent,red,yellow,y,735.4824193898208
39,18,congruent,red,red,b,790.2272908847478
39,19,incongruent,red,blue,r,715.6697178966286
39,20,incongruent,yellow,blue,g,832.7310068927923
39,21,incongruent,yellow,green,b,945.7964357878236
39,22,congruent,blue,blue,b,922.2593233044004
39,23,incongruent,yellow,red,b,810.5769205773529
39,24,congruent,red,red,y,734.0162778726283
39,25,incongruent,red,blue,r,730.5646518879386
39,26,incongruent,yellow,red,b,868.6821146198403
39,27,congruent,red,red,y,756.0226965295792
39,28,incongruent,yellow,red,b,892.700976198563
39,29,congruent,green,green,r,831.8195012514371
39,30,congruent,green,green,g,903.891540759038
39,31,incongruent,yellow,red,y,895.4210216884903
39,32,incongruent,blue,yellow,y,853.5185810790928
39,33,congruent,red,red,b,766.5889861852868
39,34,congruent,yellow,yellow,y,794.3985635766957
39,35,congruent,blue,blue,r,798.6525585605217
39,36,incongruent,blue,red,g,861.6012733456539
39,37,congruent,blue,blue,y,815.3788000382107
39,38,congruent,blue,blue,y,814.4423041576342
39,39,congruent,red,red,b,839.6398617657435
39,40,incongruent,yellow,red,g,813.474623760571
40,1,incongruent,green,yellow,b,771.6892565163955
40,2,congruent,red,red,r,931.3979913537376
40,3,congruent,green,green,b,868.4933507213948
40,4,incongruent,yellow,green,y,815.0388727430512
40,5,incongruent,blue,green,b,778.3591344628657
40,6,incongruent,blue,yellow,r,702.321021453158
40,7,congruent,red,red,b,848.4518044361455
40,8,congruent,red,red,g,811.1067574700318
40,9,congruent,green,green,b,797.0376727765162
40,10,congruent,blue,blue,b,759.8218859884731
40,11,congruent,green,green,r,925.099772064181
40,12,congruent,blue,blue,r,832.7941720275841
40,13,congruent,blue,blue,g,810.0294569530677
40,14,incongruent,red,yellow,r,589.9845012863174
40,15,congruent,yellow,yellow,r,894.8115108468185
40,16,congruent,red,red,y,791.966917226906
40,17,congruent,blue,blue,r,802.3503885673722
40,18,congruent,yellow,yellow,r,957.9922601919002
40,19,incongruent,blue,yellow,b,903.125536590531
40,20,incongruent,yellow,green,b,796.8001785856031
40,21,incongruent,red,green,y,828.6338142106495
40,22,congruent,red,red,r,867.3091645235003
40,23,incongruent,yellow,red,r,771.9735045099192
40,24,incongruent,green,red,y,647.481489394758
40,25,incongruent,blue,green,y,735.2957374229235
40,26,congruent,red,red,y,855.0014807099882
40,27,incongruent,blue,yellow,g,670.6461682061566
40,28,incongruent,blue,green,r,784.1610803920075
40,29,incongruent,green,red,g,919.3925486153662
40,30,incongruent,green,red,g,698.1673311677555
40,31,incongruent,green,blue,g,581.6810578830456
40,32,incongruent,blue,yellow,g,725.4312283277922
40,33,congruent,yellow,yellow,g,857.4584189076194
40,34,incongruent,yellow,blue,y,829.7247754917839
40,35,congruent,yellow,yellow,y,917.48984378426
40,36,congruent,green,green,y,725.1202913271712
40,37,congruent,yellow,yellow,b,796.0662620143547
40,38,incongruent,red,blue,g,695.7027741262723
40,39,congruent,red,red,g,870.9653121089776
40,40,incongruent,red,green,g,719.7089286136478
41,1,incongruent,blue,red,r,679.4887006361464
41,2,incongruent,blue,green,b,654.7831771448842
41,3,incongruent,green,yellow,y,593.5394068827266
41,4,congruent,red,red,b,800.291899126611
41,5,congruent,blue,blue,r,681.7411431383134
41,6,congruent,yellow,yellow,r,766.3748395992823
41,7,incongruent,green,red,r,517.1931319950473
41,8,congruent,green,green,b,807.5196217084236
41,9,incongruent,yellow,red,b,595.6358944996223
41,10,congruent,green,green,y,591.5130717465039
41,11,congruent,blue,blue,r,780.8645179044247
41,12,incongruent,blue,red,b,452.9686873904941
41,13,incongruent,blue,red,g,548.7121618587126
41,14,congruent,green,green,y,600.276245348051
41,15,congruent,blue,blue,g,680.8342800624662
41,16,incongruent,blue,yellow,y,709.6228755246804
41,17,congruent,blue,blue,g,810.89724958016
41,18,congruent,yellow,yellow,b,727.8780279476747
41,19,incongruent,green,red,r,607.3976110736919
41,20,incongruent,yellow,red,y,709.8556867953145
41,21,incongruent,green,yellow,r,883.7952536015949
41,22,incongruent,blue,yellow,g,617.517247971745
41,23,congruent,red,red,g,801.5406705231974
41,24,congruent,green,green,b,862.3892175242203
41,25,congruent,yellow,yellow,r,926.6431091666412
41,26,congruent,blue,blue,r,711.587570796255
41,27,incongruent,red,green,r,730.0818458319984
41,28,congruent,red,red,r,819.8844616950224
41,29,incongruent,green,red,g,579.9735034095818
41,30,incongruent,blue,red,r,734.1998825264433
41,31,congruent,red,red,b,692.0236290069795
41,32,congruent,red,red,g,685.708666072196
41,33,congruent,blue,blue,r,735.9540614145076
41,34,incongruent,blue,green,b,576.7436487583595
41,35,incongruent,blue,red,g,656.4424259526505
41,36,congruent,blue,blue,g,705.2215834210682
41,37,incongruent,red,yellow,b,688.843111478758
41,38,incongruent,yellow,red,g,589.3239315755732
41,39,congruent,red,red,b,800.5735582180026
41,40,incongruent,yellow,red,b,754.675643091976
42,1,congruent,blue,blue,r,584.6561068245202
42,2,congruent,green,green,b,759.1361942757018
42,3,incongruent,red,yellow,r,1088.627280241578
42,4,incongruent,yellow,red,r,1139.1394455524332
42,5,incongruent,yellow,blue,b,1101.2623715019097
42,6,incongruent,green,blue,g,1104.431637203283
42,7,congruent,blue,blue,g,559.2583401402983
42,8,incongruent,red,yellow,g,1224.268571727324
42,9,incongruent,yellow,green,g,1106.155912794449
42,10,congruent,yellow,yellow,y,798.9419084119356
42,11,incongruent,blue,red,r,1009.7542028769012
42,12,incongruent,green,red,r,1088.6822975259165
42,13,congruent,red,red,b,637.2593613990744
42,14,congruent,red,red,r,734.4091635470629
42,15,incongruent,blue,yellow,y,1223.0176234376047
42,16,incongruent,red,blue,r,1225.5259558004132
42,17,incongruent,green,blue,y,1142.4512660627329
42,18,congruent,green,green,r,617.2309888231465
42,19,congruent,yellow,yellow,g,771.6531727428472
42,20,congruent,green,green,g,588.8758175835676
42,21,incongruent,yellow,red,r,1100.7817519560615
42,22,congruent,yellow,yellow,r,616.8078942545571
42,23,incongruent,blue,green,y,1176.8218846755578
42,24,congruent,blue,blue,b,753.9775683784648
42,25,congruent,red,red,y,659.6862414122932
42,26,congruent,yellow,yellow,b,812.2578832772563
42,27,congruent,green,green,y,509.92302066006187
42,28,congruent,blue,blue,r,527.7364599222798
42,29,congruent,green,green,b,795.7508099954663
42,30,incongruent,blue,yellow,b,1187.5969655041572
42,31,incongruent,blue,green,r,1223.8707883576208
42,32,incongruent,blue,green,y,1252.228715680171
42,33,incongruent,yellow,red,r,1212.2746812304788
42,34,incongruent,yellow,red,y,1215.8850510021578
42,35,congruent,red,red,y,532.4171546834559
42,36,incongruent,red,green,y,1270.3516224656016
42,37,incongruent,green,red,b,1252.5026744036509
42,38,congruent,yellow,yellow,b,685.693886011222
42,39,congruent,red,red,y,668.5166732881833
42,40,congruent,blue,blue,r,644.8824703686059
43,1,congruent,yellow,yellow,y,859.179182766079
43,2,congruent,green,green,y,610.5789021856664
43,3,congruent,red,red,g,683.3035550541789
43,4,incongruent,red,green,b,410.3930699532389
43,5,incongruent,red,blue,y,574.9101961346565
43,6,congruent,red,red,r,768.0436247093704
43,7,incongruent,yellow,blue,y,803.7143811638331
43,8,incongruent,red,blue,b,860.4033888329743
43,9,incongruent,green,red,b,621.9251157001743
43,10,congruent,green,green,y,758.4715135944881
43,11,congruent,yellow,yellow,b,718.8924504639605
43,12,incongruent,yellow,green,g,623.8686772826553
43,13,incongruent,red,yellow,g,756.3500706367986
43,14,congruent,green,green,r,577.9113363924548
43,15,incongruent,green,yellow,g,665.524019572792
43,16,congruent,green,green,b,690.9193443468955
43,17,incongruent,yellow,green,g,640.7733393683394
43,18,congruent,blue,blue,b,728.9191189768529
43,19,congruent,green,green,g,617.9015455264779
43,20,congruent,red,red,g,788.6493230101062
43,21,incongruent,blue,red,b,714.5352484877998
43,22,congruent,green,green,b,818.8982979572121
43,23,congruent,green,green,r,784.3814213857297
43,24,incongruent,green,red,b,764.2439655141363
43,25,incongruent,yellow,red,g,734.085142981313
43,26,incongruent,red,blue,y,563.5451443555106
43,27,incongruent,red,green,g,568.4821876843531
43,28,congruent,green,green,b,724.995039568459
43,29,congruent,green,green,b,675.8606773298544
43,30,congruent,blue,blue,g,521.0095017131786
43,31,congruent,yellow,yellow,g,652.641505794591
43,32,congruent,red,red,b,653.3150914430646
43,33,incongruent,yellow,blue,y,797.4558777965798
43,34,incongruent,yellow,blue,y,784.0347247976814
43,35,incongruent,red,green,y,616.6382223256377
43,36,incongruent,yellow,green,y,638.8171242537716
43,37,congruent,yellow,yellow,g,746.2416155534598
43,38,incongruent,green,yellow,b,566.1354017995983
43,39,incongruent,red,blue,g,661.3829993581569
43,40,congruent,yellow,yellow,g,694.1288722279196
44,1,incongruent,green,red,g,931.6528253810408
44,2,incongruent,red,green,g,817.3070998174211
44,3,congruent,green,green,y,489.4332198047745
44,4,incongruent,green,red,y,877.1193607036728
44,5,incongruent,red,green,r,856.9582707458968
44,6,incongruent,red,yellow,g,809.2598807391938
44,7,congruent,yellow,yellow,g,500.9923432020683
44,8,congruent,blue,blue,y,458.928987859981
44,9,incongruent,green,red,y,788.5915651863487
44,10,congruent,green,green,y,596.9255460300611
44,11,incongruent,red,blue,y,772.1050510692451
44,12,congruent,red,red,b,604.7730626820278
44,13,congruent,green,green,y,614.8490010329073
44,14,congruent,yellow,yellow,g,559.7141911813873
44,15,incongruent,yellow,blue,y,932.338096438
44,16,incongruent,red,blue,y,898.6547273495016
44,17,incongruent,blue,red,y,885.1736604859148
44,18,incongruent,green,yellow,y,851.0896999147271
44,19,incongruent,blue,red,b,762.1659212260529
44,20,incongruent,green,red,r,896.5167948631847
44,21,incongruent,yellow,blue,r,968.0613070883971
44,22,congruent,blue,blue,r,562.5001716050813
44,23,congruent,green,green,r,600.8923553223285
44,24,congruent,blue,blue,b,493.86061037139007
44,25,congruent,green,green,b,600.4530241598952
44,26,congruent,red,red,b,708.0339232511578
44,27,congruent,green,green,y,412.6637633884642
44,28,incongruent,green,yellow,r,805.6389120653056
44,29,congruent,yellow,yellow,r,494.0431837901079
44,30,congruent,green,green,y,588.7300247105447
44,31,incongruent,red,green,b,1012.3865144034762
44,32,congruent,green,green,r,466.6695639583292
44,33,congruent,blue,blue,b,550.141259140309
44,34,incongruent,red,yellow,r,907.2312134821208
44,35,congruent,yellow,yellow,g,575.93096726338
44,36,incongruent,red,green,b,832.9607517579499
44,37,incongruent,green,blue,g,850.6701294556872
44,38,incongruent,blue,red,y,983.6907558268634
44,39,congruent,blue,blue,r,646.0437915949428
44,40,congruent,blue,blue,y,652.1184996508615
45,1,congruent,yellow,yellow,b,779.3453073154357
45,2,incongruent,blue,red,y,861.609867420648
45,3,congruent,yellow,yellow,g,682.8954814568297
45,4,congruent,red,red,r,778.7741763993737
45,5,incongruent,green,yellow,g,838.1344794691641
45,6,congruent,green,green,r,894.0799963802015
45,7,congruent,blue,blue,y,768.2200885047092
45,8,incongruent,red,blue,r,793.0034446934627
45,9,incongruent,red,blue,r,919.1803232044296
45,10,congruent,red,red,y,793.875771956105
45,11,incongruent,yellow,green,b,888.1774582694738
45,12,incongruent,green,red,g,914.4387770838218
45,13,congruent,blue,blue,r,969.4077086484064
45,14,congruent,red,red,g,694.5576232969506
45,15,congruent,red,red,y,777.4357856242584
45,16,incongruent,yellow,green,y,803.9353521264662
45,17,congruent,red,red,b,818.8223867422481
45,18,incongruent,blue,green,b,891.6053307925927
45,19,incongruent,green,yellow,g,894.4555841341061
45,20,incongruent,red,blue,y,966.9908277654412
45,21,incongruent,yellow,red,r,898.9685925885454
45,22,congruent,yellow,yellow,y,864.2506936174523
45,23,incongruent,blue,yellow,r,900.6047342449261
45,24,incongruent,blue,red,r,1003.7089810768024
45,25,congruent,blue,blue,r,823.443478961388
45,26,incongruent,green,yellow,g,890.5904205405319
45,27,congruent,yellow,yellow,b,647.9513441297102
45,28,congruent,red,red,r,776.7350446086812
45,29,incongruent,green,red,g,882.8272568699332
45,30,congruent,red,red,y,935.3837454431542
45,31,congruent,blue,blue,b,777.5175243411795
45,32,incongruent,red,green,y,795.6591932333046
45,33,incongruent,green,yellow,g,795.9506747603284
45,34,congruent,blue,blue,g,616.6451002835356
45,35,congruent,green,green,y,774.9405419385826
45,36,congruent,green,green,g,844.607513577957
45,37,incongruent,yellow,green,g,961.1438082282144
45,38,incongruent,red,blue,g,791.1743331679161
45,39,incongruent,blue,yellow,g,927.8238583298904
45,40,congruent,green,green,b,720.7427747738413
46,1,congruent,yellow,yellow,r,650.1395205959019
46,2,congruent,red,red,g,685.539869238654
46,3,congruent,green,green,b,729.8430812308616
46,4,incongruent,blue,yellow,g,830.2356763913104
46,5,congruent,red,red,g,726.2634776944788
46,6,incongruent,blue,yellow,y,649.0767134665437
46,7,incongruent,yellow,green,b,652.5282364524436
46,8,incongruent,green,blue,y,672.0395016671587
46,9,congruent,green,green,r,599.9196443249598
46,10,congruent,green,green,y,590.7051104946743
46,11,congruent,green,green,y,706.9130261070603
46,12,congruent,yellow,yellow,b,737.6680934750749
46,13,incongruent,yellow,green,b,875.7505715418638
46,14,incongruent,blue,yellow,g,593.7484102092698
46,15,incongruent,blue,green,b,641.2737270753568
46,16,incongruent,blue,red,y,806.7702175487902
46,17,congruent,green,green,b,803.6086050113813
46,18,congruent,red,red,g,698.4828510749952
46,19,congruent,blue,blue,y,650.703288333758
46,20,congruent,green,green,g,728.6272963863973
46,21,incongruent,green,red,g,629.847842875294
46,22,congruent,green,green,g,683.5771886916621
46,23,congruent,red,red,r,733.5961091982695
46,24,incongruent,yellow,green,g,590.0077216070531
46,25,incongruent,red,blue,g,746.3229194665321
46,26,incongruent,yellow,green,b,860.2877507096603
46,27,incongruent,red,green,r,753.2916492322798
46,28,congruent,yellow,yellow,g,675.3902722504575
46,29,congruent,red,red,g,660.224492799318
46,30,congruent,blue,blue,y,673.7163865321211
46,31,incongruent,green,blue,b,852.461251083657
46,32,incongruent,blue,green,g,810.176736327009
46,33,congruent,green,green,y,790.6350360102073
46,34,congruent,blue,blue,g,830.0651105719811
46,35,congruent,blue,blue,y,719.8054259777879
46,36,incongruent,yellow,red,g,765.2657455751646
46,37,incongruent,blue,yellow,b,727.8995575251499
46,38,incongruent,blue,yellow,g,850.5773029253584
46,39,incongruent,yellow,blue,r,737.2347899460244
46,40,incongruent,blue,red,y,713.9481863740809
47,1,incongruent,blue,green,b,889.627354571963
47,2,congruent,red,red,y,716.1637457686849
47,3,incongruent,green,yellow,g,916.092085741739
47,4,incongruent,blue,yellow,y,984.4674574214216
47,5,incongruent,red,green,r,944.185932304421
47,6,incongruent,yellow,blue,b,853.2189124057653
47,7,congruent,red,red,b,706.0046283795898
47,8,incongruent,yellow,blue,y,1092.8602690730313
47,9,incongruent,green,red,g,1008.46286885695
47,10,congruent,blue,blue,g,783.4974913625854
47,11,incongruent,yellow,green,r,992.8267708675362
47,12,congruent,blue,blue,b,853.5648858752647
47,13,incongruent,green,blue,b,871.7013181515988
47,14,congruent,yellow,yellow,y,902.0428180366424
47,15,congruent,yellow,yellow,y,821.8817590348119
47,16,congruent,red,red,r,811.2612068517562
47,17,incongruent,green,yellow,b,986.4060618191676
47,18,incongruent,red,blue,g,984.5061571686396
47,19,incongruent,green,red,b,883.6258741622809
47,20,congruent,blue,blue,g,753.1667977013178
47,21,incongruent,red,blue,r,806.3779247742276
47,22,congruent,blue,blue,b,901.6826966091918
47,23,congruent,blue,blue,r,573.7516787352542
47,24,incongruent,red,yellow,g,921.6284636006926
47,25,incongruent,yellow,red,g,742.5710207384523
47,26,congruent,red,red,b,965.975547098941
47,27,incongruent,green,red,g,952.1531739849188
47,28,congruent,green,green,b,828.4292286649136
47,29,congruent,yellow,yellow,y,701.4065769910262
47,30,congruent,yellow,yellow,r,747.6950308402568
47,31,congruent,blue,blue,g,858.3907331670977
47,32,incongruent,green,yellow,r,787.4904005781451
47,33,congruent,red,red,r,640.1667979180933
47,34,congruent,blue,blue,y,844.9859130269544
47,35,incongruent,yellow,blue,g,1018.819201626
47,36,congruent,blue,blue,g,800.3908312686551
47,37,congruent,blue,blue,r,659.3717009046612
47,38,congruent,green,green,y,774.0817157643004
47,39,incongruent,red,blue,g,855.1581171698717
47,40,incongruent,yellow,red,y,1032.6915229831775
48,1,incongruent,yellow,red,y,672.5307855735568
48,2,congruent,green,green,g,593.5698495700976
48,3,incongruent,red,blue,g,701.4606435262983
48,4,congruent,blue,blue,g,809.8964273101046
48,5,congruent,red,red,g,695.7364250885862
48,6,incongruent,red,green,b,839.9330585291088
48,7,incongruent,blue,green,b,720.3370673335048
48,8,congruent,yellow,yellow,y,710.6977707480368
48,9,congruent,yellow,yellow,b,649.3695701350616
48,10,congruent,yellow,yellow,r,615.0740715409896
48,11,congruent,green,green,r,713.8277370200759
48,12,incongruent,yellow,red,g,806.7714067123812
48,13,congruent,blue,blue,y,777.5157008158061
48,14,incongruent,blue,green,g,682.669112953746
48,15,congruent,yellow,yellow,r,655.8687701477929
48,16,incongruent,green,red,y,706.3797944074107
48,17,congruent,blue,blue,g,706.113103124743
48,18,congruent,red,red,y,804.7349773032358
48,19,incongruent,green,blue,b,638.0750297069684
48,20,incongruent,green,yellow,b,763.8832910197788
48,21,congruent,yellow,yellow,g,820.912190286874
48,22,congruent,yellow,yellow,b,823.3412827224613
48,23,incongruent,red,yellow,y,904.8323111570876
48,24,incongruent,red,green,g,500.66941694730065
48,25,incongruent,green,blue,y,750.1111735117036
48,26,incongruent,yellow,blue,g,629.1093981155549
48,27,congruent,yellow,yellow,y,776.923528368686
48,28,incongruent,yellow,green,g,831.9786734355447
48,29,incongruent,yellow,green,r,791.4744851292098
48,30,congruent,red,red,y,758.6645493553475
48,31,congruent,blue,blue,r,778.9588859479741
48,32,incongruent,green,yellow,r,671.3597606164401
48,33,congruent,yellow,yellow,y,698.7889680325062
48,34,congruent,yellow,yellow,b,657.637120893225
48,35,congruent,green,green,g,790.7997659303345
48,36,congruent,red,red,y,593.566525658061
48,37,incongruent,blue,yellow,g,822.6578156826572
48,38,incongruent,blue,red,b,625.8098672835856
48,39,incongruent,yellow,green,b,640.8832422870084
48,40,incongruent,red,yellow,y,726.0864320711543
49,1,incongruent,green,yellow,r,838.5798200505402
49,2,congruent,green,green,r,974.547286790127
49,3,congruent,green,green,b,882.0950187109761
49,4,congruent,red,red,r,700.2569196498374
49,5,congruent,green,green,b,693.4647471367135
49,6,congruent,red,red,r,977.214164394066
49,7,congruent,red,red,r,888.4956644779224
49,8,congruent,green,green,y,754.9685257789263
49,9,incongruent,red,green,g,849.4870778417802
49,10,congruent,green,green,r,865.1118154781487
49,11,congruent,blue,blue,g,983.7860925674532
49,12,incongruent,green,red,g,928.0094050726076
49,13,incongruent,blue,yellow,g,893.104067033554
49,14,congruent,blue,blue,r,967.9600842333832
49,15,incongruent,blue,red,y,1019.6722263964313
49,16,incongruent,red,yellow,r,1088.2338359840587
49,17,incongruent,green,yellow,y,828.4091942992385
49,18,congruent,blue,blue,g,738.0193984150393
49,19,incongruent,blue,green,r,829.7393203306178
49,20,incongruent,green,red,b,810.8501443534651
49,21,incongruent,blue,yellow,r,897.1691481713025
49,22,congruent,green,green,b,814.1793691902709
49,23,congruent,green,green,b,936.1913983941934
49,24,incongruent,yellow,red,y,843.6038424898999
49,25,congruent,blue,blue,b,895.4484788900359
49,26,incongruent,yellow,red,g,900.7711277511556
49,27,incongruent,red,yellow,r,797.7636711780563
49,28,congruent,red,red,b,935.0184233638936
49,29,incongruent,yellow,red,y,962.4436553885816
49,30,congruent,blue,blue,y,864.6686252001955
49,31,incongruent,blue,yellow,b,973.2474674108536
49,32,congruent,blue,blue,g,931.377043078376
49,33,incongruent,blue,red,r,864.5579981231296
49,34,incongruent,blue,yellow,g,967.0569077283826
49,35,incongruent,yellow,red,g,873.038859430075
49,36,congruent,red,red,g,778.3007971453034
49,37,congruent,green,green,r,770.1333637172079
49,38,incongruent,red,green,r,835.8364003392774
49,39,congruent,yellow,yellow,y,832.4756693879319
49,40,incongruent,red,blue,r,835.6868106269926
50,1,incongruent,green,blue,g,778.1053739294856
50,2,incongruent,yellow,red,r,620.5489046364459
50,3,congruent,green,green,b,649.4266804191948
50,4,congruent,yellow,yellow,b,702.4235050745946
50,5,incongruent,yellow,green,r,592.4393118540146
50,6,congruent,blue,blue,y,799.6049045356802
50,7,incongruent,red,yellow,r,764.5464550130997
50,8,incongruent,blue,green,r,714.6229277106404
50,9,congruent,blue,blue,b,735.5760982865543
50,10,congruent,blue,blue,y,924.6068877845388
50,11,incongruent,red,blue,b,724.4081829396027
50,12,congruent,blue,blue,y,840.1898991111648
50,13,congruent,red,red,g,855.2102837006494
50,14,congruent,yellow,yellow,g,675.2382871123825
50,15,incongruent,yellow,blue,y,603.7431835432046
50,16,congruent,red,red,r,710.2740220229861
50,17,congruent,blue,blue,g,779.1854370345063
50,18,incongruent,yellow,blue,g,660.9952098176681
50,19,incongruent,red,blue,y,754.5898910187395
50,20,incongruent,red,blue,b,646.7135219089022
50,21,congruent,green,green,b,826.3656502210644
50,22,congruent,yellow,yellow,b,889.4112041950755
50,23,incongruent,green,blue,r,660.4987834383116
50,24,incongruent,yellow,green,b,552.8108568267459
50,25,congruent,green,green,r,833.8179505950378
50,26,incongruent,yellow,blue,y,538.1813137101691
50,27,congruent,blue,blue,r,702.2375391177183
50,28,incongruent,blue,yellow,b,581.6403056732255
50,29,congruent,yellow,yellow,r,839.5269678542372
50,30,incongruent,red,yellow,g,662.7777741841157
50,31,congruent,red,red,g,603.769256516291
50,32,congruent,red,red,b,872.2730211448478
50,33,incongruent,yellow,red,y,503.4230131109834
50,34,congruent,red,red,y,745.7733694726247
50,35,congruent,green,green,b,673.5156701287692
50,36,incongruent,yellow,green,b,660.3259657710214
50,37,incongruent,red,blue,y,683.5305105998654
50,38,incongruent,green,yellow,y,650.2092709671459
50,39,incongruent,blue,red,y,591.8922993466113
50,40,congruent,blue,blue,b,662.0060916720818
51,1,congruent,green,green,g,1000.1540022496508
51,2,incongruent,yellow,blue,b,803.3061861813677
51,3,congruent,yellow,yellow,y,955.5120645938492
51,4,incongruent,blue,green,g,702.8143342543792
51,5,incongruent,yellow,red,y,952.4872508510468
51,6,congruent,blue,blue,r,1082.5223335893795
51,7,incongruent,red,blue,r,840.1478547532657
51,8,congruent,red,red,g,1036.3228790705696
51,9,congruent,red,red,g,977.5310153715924
51,10,congruent,blue,blue,y,1076.8527001034524
51,11,congruent,red,red,r,1057.6954590495125
51,12,incongruent,blue,yellow,g,727.2617595519044
51,13,congruent,yellow,yellow,y,966.0607820846412
51,14,congruent,yellow,yellow,y,970.8975205903946
51,15,incongruent,red,yellow,y,858.8320464523932
51,16,congruent,red,red,y,1074.6278092843054
51,17,incongruent,yellow,red,b,803.5436385855716
51,18,congruent,red,red,b,981.4637112869112
51,19,incongruent,blue,yellow,r,750.3737654975301
51,20,incongruent,red,yellow,y,705.6857027514101
51,21,congruent,green,green,y,1041.3470393922885
51,22,incongruent,blue,yellow,y,789.7116594415945
51,23,congruent,yellow,yellow,r,973.1705437743594
51,24,congruent,yellow,yellow,r,877.8405719352514
51,25,congruent,green,green,g,979.064875332342
51,26,congruent,green,green,g,1112.2043463628515
51,27,incongruent,yellow,red,b,772.1003790949491
51,28,incongruent,red,green,y,880.278476593565
51,29,incongruent,green,blue,r,881.9197442150116
51,30,incongruent,green,red,b,804.3955402113994
51,31,incongruent,blue,green,y,787.5749507645704
51,32,incongruent,blue,red,y,957.8231671919084
51,33,incongruent,yellow,red,y,888.759615307462
51,34,incongruent,blue,green,g,760.5057624479783
51,35,incongruent,red,green,b,768.160642118639
51,36,congruent,green,green,r,1119.9302208255235
51,37,congruent,red,red,y,1018.481867624185
51,38,incongruent,yellow,green,r,720.508321734053
51,39,congruent,green,green,g,928.583300246237
51,40,congruent,red,red,g,1186.0735172327031
52,1,congruent,yellow,yellow,y,772.2861595958508
52,2,incongruent,yellow,red,y,848.4535124862897
52,3,congruent,green,green,y,809.8131441076329
52,4,congruent,red,red,g,698.3609978140379
52,5,congruent,green,green,y,781.5988860412627
52,6,congruent,green,green,r,750.1571588837423
52,7,incongruent,blue,red,r,998.1000258672136
52,8,congruent,green,green,r,776.9655943589773
52,9,incongruent,blue,red,g,1095.0692243241297
52,10,incongruent,blue,green,b,1048.9384425206667
52,11,congruent,yellow,yellow,g,773.1259286004541
52,12,congruent,yellow,yellow,g,753.0977074699055
52,13,incongruent,blue,green,b,1026.1194322585552
52,14,incongruent,yellow,red,b,916.2655049562114
52,15,incongruent,red,green,g,915.1978996353492
52,16,congruent,green,green,r,776.2387818736127
52,17,congruent,green,green,g,796.8470248571258
52,18,congruent,blue,blue,g,645.6399737805519
52,19,incongruent,blue,green,y,938.9729414888455
52,20,congruent,red,red,g,736.0608123578996
52,21,incongruent,blue,red,y,900.2464113224539
52,22,incongruent,green,red,b,934.420755183644
52,23,congruent,yellow,yellow,y,844.6469899612255
52,24,incongruent,yellow,red,r,805.7253293192144
52,25,congruent,green,green,r,761.930005908459
52,26,incongruent,yellow,green,g,931.1183473670428
52,27,incongruent,yellow,blue,r,1007.1690962484766
52,28,congruent,yellow,yellow,g,900.309961707903
52,29,congruent,yellow,yellow,y,795.3990216906129
52,30,incongruent,green,red,b,993.7058641310658
52,31,incongruent,green,yellow,b,928.3845407832912
52,32,incongruent,yellow,red,r,814.1429626822165
52,33,incongruent,red,blue,y,955.6815603659484
52,34,congruent,yellow,yellow,y,826.0281722187997
52,35,congruent,blue,blue,g,823.9092154285077
52,36,congruent,yellow,yellow,g,720.0271275630042
52,37,congruent,yellow,yellow,r,830.1371937804327
52,38,incongruent,red,blue,b,966.129895947488
52,39,incongruent,yellow,green,r,1068.2733134833709
52,40,incongruent,green,blue,r,1009.1348876285258
53,1,congruent,blue,blue,r,720.0021554747543
53,2,congruent,blue,blue,y,803.7498581880831
53,3,congruent,yellow,yellow,g,867.7069269394511
53,4,congruent,blue,blue,y,774.1617474023645
53,5,incongruent,green,red,y,645.6421075278554
53,6,congruent,red,red,g,697.5110826905986
53,7,incongruent,red,blue,g,525.8540426859528
53,8,incongruent,yellow,red,b,517.1231042923123
53,9,incongruent,red,blue,b,474.1243117514463
53,10,incongruent,red,green,r,462.7180220030445
53,11,congruent,green,green,r,713.5008576585901
53,12,incongruent,blue,green,g,527.2057210260349
53,13,incongruent,green,yellow,y,568.1207789273277
53,14,incongruent,yellow,blue,b,475.7980215226378
53,15,incongruent,yellow,green,r,492.7255233407955
53,16,incongruent,yellow,blue,b,600.6086287099417
53,17,incongruent,red,yellow,y,506.31126556204634
53,18,congruent,yellow,yellow,g,706.6193810600698
